id,block,trial,n_edges,n_loops,duration,edges,n_paths,response,rt,start_node,end_node,correct
01,practice,1,18,3,3,"[((1, 1), (2, 1)), ((2, 1), (1, 1)), ((2, 1), (2, 2)), ((2, 2), (2, 1)), ((0, 1), (1, 1)), ((1, 1), (0, 1)), ((2, 1), (3, 1)), ((3, 1), (2, 1)), ((0, 1), (0, 2)), ((0, 2), (0, 1)), ((0, 2), (0, 3)), ((0, 3), (0, 2)), ((1, 1), (1, 2)), ((1, 2), (1, 1)), ((0, 3), (1, 3)), ((1, 3), (0, 3)), ((1, 0), (2, 0)), ((2, 0), (1, 0)), ((2, 0), (3, 0)), ((3, 0), (2, 0)), ((1, 3), (2, 3)), ((2, 3), (1, 3)), ((1, 2), (2, 2)), ((2, 2), (1, 2)), ((0, 0), (0, 1)), ((0, 1), (0, 0)), ((2, 3), (3, 3)), ((3, 3), (2, 3)), ((3, 2), (3, 3)), ((3, 3), (3, 2)), ((1, 2), (1, 3)), ((1, 3), (1, 2)), ((0, 2), (1, 2)), ((1, 2), (0, 2)), ((1, 0), (1, 1)), ((1, 1), (1, 0))]",6,NA,NA,14,3,NA
01,practice,2,18,3,3,"[((0, 0), (0, 1)), ((0, 1), (0, 0)), ((0, 3), (1, 3)), ((1, 3), (0, 3)), ((2, 2), (2, 3)), ((2, 3), (2, 2)), ((3, 1), (3, 2)), ((3, 2), (3, 1)), ((1, 1), (2, 1)), ((2, 1), (1, 1)), ((3, 0), (3, 1)), ((3, 1), (3, 0)), ((1, 0), (2, 0)), ((2, 0), (1, 0)), ((2, 3), (3, 3)), ((3, 3), (2, 3)), ((2, 0), (3, 0)), ((3, 0), (2, 0)), ((1, 2), (1, 3)), ((1, 3), (1, 2)), ((1, 2), (2, 2)), ((2, 2), (1, 2)), ((0, 2), (0, 3)), ((0, 3), (0, 2)), ((1, 3), (2, 3)), ((2, 3), (1, 3)), ((2, 1), (3, 1)), ((3, 1), (2, 1)), ((0, 0), (1, 0)), ((1, 0), (0, 0)), ((0, 2), (1, 2)), ((1, 2), (0, 2)), ((2, 2), (3, 2)), ((3, 2), (2, 2)), ((1, 1), (1, 2)), ((1, 2), (1, 1))]",6,4,4.0142,2,15,0
01,practice,3,18,3,3,"[((3, 1), (3, 2)), ((3, 2), (3, 1)), ((0, 2), (1, 2)), ((1, 2), (0, 2)), ((2, 1), (2, 2)), ((2, 2), (2, 1)), ((0, 3), (1, 3)), ((1, 3), (0, 3)), ((2, 0), (3, 0)), ((3, 0), (2, 0)), ((3, 2), (3, 3)), ((3, 3), (3, 2)), ((1, 2), (2, 2)), ((2, 2), (1, 2)), ((3, 0), (3, 1)), ((3, 1), (3, 0)), ((2, 0), (2, 1)), ((2, 1), (2, 0)), ((0, 2), (0, 3)), ((0, 3), (0, 2)), ((0, 1), (1, 1)), ((1, 1), (0, 1)), ((2, 1), (3, 1)), ((3, 1), (2, 1)), ((1, 0), (1, 1)), ((1, 1), (1, 0)), ((0, 1), (0, 2)), ((0, 2), (0, 1)), ((0, 0), (1, 0)), ((1, 0), (0, 0)), ((2, 3), (3, 3)), ((3, 3), (2, 3)), ((2, 2), (3, 2)), ((3, 2), (2, 2)), ((1, 1), (1, 2)), ((1, 2), (1, 1))]",6,4,2.7454,3,14,0
01,practice,4,17,2,3,"[((2, 0), (2, 1)), ((2, 1), (2, 0)), ((2, 1), (2, 2)), ((2, 2), (2, 1)), ((0, 1), (0, 2)), ((0, 2), (0, 1)), ((0, 2), (1, 2)), ((1, 2), (0, 2)), ((0, 3), (1, 3)), ((1, 3), (0, 3)), ((1, 3), (2, 3)), ((2, 3), (1, 3)), ((2, 1), (3, 1)), ((3, 1), (2, 1)), ((3, 2), (3, 3)), ((3, 3), (3, 2)), ((0, 0), (1, 0)), ((1, 0), (0, 0)), ((2, 0), (3, 0)), ((3, 0), (2, 0)), ((0, 1), (1, 1)), ((1, 1), (0, 1)), ((3, 1), (3, 2)), ((3, 2), (3, 1)), ((0, 2), (0, 3)), ((0, 3), (0, 2)), ((2, 2), (3, 2)), ((3, 2), (2, 2)), ((1, 2), (2, 2)), ((2, 2), (1, 2)), ((1, 0), (1, 1)), ((1, 1), (1, 0)), ((3, 0), (3, 1)), ((3, 1), (3, 0))]",3,4,2.1485,2,15,0
01,practice,5,17,2,3,"[((1, 2), (1, 3)), ((1, 3), (1, 2)), ((3, 1), (3, 2)), ((3, 2), (3, 1)), ((0, 0), (0, 1)), ((0, 1), (0, 0)), ((0, 0), (1, 0)), ((1, 0), (0, 0)), ((0, 1), (0, 2)), ((0, 2), (0, 1)), ((2, 0), (3, 0)), ((3, 0), (2, 0)), ((0, 2), (0, 3)), ((0, 3), (0, 2)), ((1, 3), (2, 3)), ((2, 3), (1, 3)), ((1, 0), (1, 1)), ((1, 1), (1, 0)), ((3, 2), (3, 3)), ((3, 3), (3, 2)), ((0, 2), (1, 2)), ((1, 2), (0, 2)), ((1, 2), (2, 2)), ((2, 2), (1, 2)), ((1, 0), (2, 0)), ((2, 0), (1, 0)), ((2, 2), (3, 2)), ((3, 2), (2, 2)), ((3, 0), (3, 1)), ((3, 1), (3, 0)), ((0, 1), (1, 1)), ((1, 1), (0, 1)), ((2, 1), (3, 1)), ((3, 1), (2, 1))]",3,4,1.1589,14,3,0
01,practice,6,16,1,3,"[((3, 0), (3, 1)), ((3, 1), (3, 0)), ((2, 2), (2, 3)), ((2, 3), (2, 2)), ((1, 0), (2, 0)), ((2, 0), (1, 0)), ((0, 0), (0, 1)), ((0, 1), (0, 0)), ((1, 0), (1, 1)), ((1, 1), (1, 0)), ((2, 1), (3, 1)), ((3, 1), (2, 1)), ((2, 0), (2, 1)), ((2, 1), (2, 0)), ((1, 2), (2, 2)), ((2, 2), (1, 2)), ((0, 2), (1, 2)), ((1, 2), (0, 2)), ((0, 0), (1, 0)), ((1, 0), (0, 0)), ((1, 1), (1, 2)), ((1, 2), (1, 1)), ((2, 3), (3, 3)), ((3, 3), (2, 3)), ((2, 2), (3, 2)), ((3, 2), (2, 2)), ((0, 2), (0, 3)), ((0, 3), (0, 2)), ((0, 1), (0, 2)), ((0, 2), (0, 1)), ((0, 3), (1, 3)), ((1, 3), (0, 3))]",2,2,1.1305,8,9,1
01,practice,7,17,2,3,"[((2, 2), (3, 2)), ((3, 2), (2, 2)), ((1, 2), (1, 3)), ((1, 3), (1, 2)), ((0, 2), (1, 2)), ((1, 2), (0, 2)), ((3, 0), (3, 1)), ((3, 1), (3, 0)), ((1, 0), (2, 0)), ((2, 0), (1, 0)), ((0, 2), (0, 3)), ((0, 3), (0, 2)), ((1, 2), (2, 2)), ((2, 2), (1, 2)), ((3, 1), (3, 2)), ((3, 2), (3, 1)), ((1, 0), (1, 1)), ((1, 1), (1, 0)), ((1, 1), (2, 1)), ((2, 1), (1, 1)), ((2, 0), (3, 0)), ((3, 0), (2, 0)), ((0, 1), (0, 2)), ((0, 2), (0, 1)), ((1, 3), (2, 3)), ((2, 3), (1, 3)), ((0, 0), (1, 0)), ((1, 0), (0, 0)), ((3, 2), (3, 3)), ((3, 3), (3, 2)), ((1, 1), (1, 2)), ((1, 2), (1, 1)), ((0, 1), (1, 1)), ((1, 1), (0, 1))]",5,3,2.58,5,12,0
01,practice,8,17,2,3,"[((0, 1), (0, 2)), ((0, 2), (0, 1)), ((1, 1), (1, 2)), ((1, 2), (1, 1)), ((0, 0), (1, 0)), ((1, 0), (0, 0)), ((2, 2), (2, 3)), ((2, 3), (2, 2)), ((3, 1), (3, 2)), ((3, 2), (3, 1)), ((1, 1), (2, 1)), ((2, 1), (1, 1)), ((3, 2), (3, 3)), ((3, 3), (3, 2)), ((2, 0), (3, 0)), ((3, 0), (2, 0)), ((1, 0), (1, 1)), ((1, 1), (1, 0)), ((1, 2), (2, 2)), ((2, 2), (1, 2)), ((0, 3), (1, 3)), ((1, 3), (0, 3)), ((0, 2), (0, 3)), ((0, 3), (0, 2)), ((3, 0), (3, 1)), ((3, 1), (3, 0)), ((0, 0), (0, 1)), ((0, 1), (0, 0)), ((1, 0), (2, 0)), ((2, 0), (1, 0)), ((2, 2), (3, 2)), ((3, 2), (2, 2)), ((1, 3), (2, 3)), ((2, 3), (1, 3))]",3,4,0.9149,12,5,0
01,practice,9,17,2,3,"[((1, 0), (2, 0)), ((2, 0), (1, 0)), ((3, 0), (3, 1)), ((3, 1), (3, 0)), ((1, 1), (2, 1)), ((2, 1), (1, 1)), ((0, 1), (1, 1)), ((1, 1), (0, 1)), ((0, 2), (0, 3)), ((0, 3), (0, 2)), ((2, 2), (3, 2)), ((3, 2), (2, 2)), ((0, 0), (1, 0)), ((1, 0), (0, 0)), ((3, 2), (3, 3)), ((3, 3), (3, 2)), ((3, 1), (3, 2)), ((3, 2), (3, 1)), ((0, 1), (0, 2)), ((0, 2), (0, 1)), ((0, 3), (1, 3)), ((1, 3), (0, 3)), ((2, 1), (2, 2)), ((2, 2), (2, 1)), ((2, 0), (2, 1)), ((2, 1), (2, 0)), ((2, 0), (3, 0)), ((3, 0), (2, 0)), ((2, 3), (3, 3)), ((3, 3), (2, 3)), ((1, 2), (2, 2)), ((2, 2), (1, 2)), ((1, 1), (1, 2)), ((1, 2), (1, 1))]",4,3,1.3797,2,15,0
01,practice,10,15,0,3,"[((1, 1), (2, 1)), ((2, 1), (1, 1)), ((1, 2), (1, 3)), ((1, 3), (1, 2)), ((2, 0), (3, 0)), ((3, 0), (2, 0)), ((1, 0), (1, 1)), ((1, 1), (1, 0)), ((2, 3), (3, 3)), ((3, 3), (2, 3)), ((3, 2), (3, 3)), ((3, 3), (3, 2)), ((0, 2), (1, 2)), ((1, 2), (0, 2)), ((0, 0), (0, 1)), ((0, 1), (0, 0)), ((0, 3), (1, 3)), ((1, 3), (0, 3)), ((0, 0), (1, 0)), ((1, 0), (0, 0)), ((1, 2), (2, 2)), ((2, 2), (1, 2)), ((3, 1), (3, 2)), ((3, 2), (3, 1)), ((2, 2), (3, 2)), ((3, 2), (2, 2)), ((2, 1), (3, 1)), ((3, 1), (2, 1)), ((3, 0), (3, 1)), ((3, 1), (3, 0))]",1,1,0.4484,3,14,1
01,1,1,15,0,5,"[((0, 2), (0, 3)), ((0, 3), (0, 2)), ((2, 1), (2, 2)), ((2, 2), (2, 1)), ((2, 0), (3, 0)), ((3, 0), (2, 0)), ((2, 3), (3, 3)), ((3, 3), (2, 3)), ((1, 3), (2, 3)), ((2, 3), (1, 3)), ((0, 1), (1, 1)), ((1, 1), (0, 1)), ((0, 0), (0, 1)), ((0, 1), (0, 0)), ((3, 2), (3, 3)), ((3, 3), (3, 2)), ((1, 0), (2, 0)), ((2, 0), (1, 0)), ((1, 1), (1, 2)), ((1, 2), (1, 1)), ((0, 1), (0, 2)), ((0, 2), (0, 1)), ((3, 0), (3, 1)), ((3, 1), (3, 0)), ((2, 1), (3, 1)), ((3, 1), (2, 1)), ((2, 2), (2, 3)), ((2, 3), (2, 2)), ((1, 1), (2, 1)), ((2, 1), (1, 1))]",1,1,0.8816,3,14,1
01,1,2,16,1,5,"[((1, 0), (2, 0)), ((2, 0), (1, 0)), ((3, 2), (3, 3)), ((3, 3), (3, 2)), ((1, 3), (2, 3)), ((2, 3), (1, 3)), ((0, 2), (1, 2)), ((1, 2), (0, 2)), ((2, 1), (2, 2)), ((2, 2), (2, 1)), ((2, 3), (3, 3)), ((3, 3), (2, 3)), ((1, 1), (1, 2)), ((1, 2), (1, 1)), ((2, 2), (2, 3)), ((2, 3), (2, 2)), ((0, 3), (1, 3)), ((1, 3), (0, 3)), ((1, 2), (2, 2)), ((2, 2), (1, 2)), ((2, 2), (3, 2)), ((3, 2), (2, 2)), ((0, 0), (1, 0)), ((1, 0), (0, 0)), ((0, 1), (0, 2)), ((0, 2), (0, 1)), ((3, 1), (3, 2)), ((3, 2), (3, 1)), ((0, 0), (0, 1)), ((0, 1), (0, 0)), ((3, 0), (3, 1)), ((3, 1), (3, 0))]",2,2,0.7468,8,9,1
01,1,3,18,3,5,"[((0, 1), (1, 1)), ((1, 1), (0, 1)), ((0, 2), (0, 3)), ((0, 3), (0, 2)), ((0, 0), (0, 1)), ((0, 1), (0, 0)), ((2, 0), (2, 1)), ((2, 1), (2, 0)), ((3, 0), (3, 1)), ((3, 1), (3, 0)), ((2, 1), (3, 1)), ((3, 1), (2, 1)), ((3, 2), (3, 3)), ((3, 3), (3, 2)), ((1, 3), (2, 3)), ((2, 3), (1, 3)), ((0, 3), (1, 3)), ((1, 3), (0, 3)), ((2, 3), (3, 3)), ((3, 3), (2, 3)), ((1, 2), (2, 2)), ((2, 2), (1, 2)), ((1, 0), (2, 0)), ((2, 0), (1, 0)), ((1, 0), (1, 1)), ((1, 1), (1, 0)), ((2, 0), (3, 0)), ((3, 0), (2, 0)), ((0, 0), (1, 0)), ((1, 0), (0, 0)), ((0, 1), (0, 2)), ((0, 2), (0, 1)), ((2, 1), (2, 2)), ((2, 2), (2, 1)), ((1, 1), (1, 2)), ((1, 2), (1, 1))]",6,5,1.8317,8,9,0
01,1,4,17,2,5,"[((3, 2), (3, 3)), ((3, 3), (3, 2)), ((0, 3), (1, 3)), ((1, 3), (0, 3)), ((0, 0), (0, 1)), ((0, 1), (0, 0)), ((2, 2), (2, 3)), ((2, 3), (2, 2)), ((2, 2), (3, 2)), ((3, 2), (2, 2)), ((1, 3), (2, 3)), ((2, 3), (1, 3)), ((1, 1), (2, 1)), ((2, 1), (1, 1)), ((1, 2), (1, 3)), ((1, 3), (1, 2)), ((1, 2), (2, 2)), ((2, 2), (1, 2)), ((2, 1), (3, 1)), ((3, 1), (2, 1)), ((0, 0), (1, 0)), ((1, 0), (0, 0)), ((1, 1), (1, 2)), ((1, 2), (1, 1)), ((2, 0), (2, 1)), ((2, 1), (2, 0)), ((3, 0), (3, 1)), ((3, 1), (3, 0)), ((3, 1), (3, 2)), ((3, 2), (3, 1)), ((1, 0), (2, 0)), ((2, 0), (1, 0)), ((0, 1), (0, 2)), ((0, 2), (0, 1))]",3,3,3.4132,3,14,1
01,1,5,15,0,5,"[((3, 1), (3, 2)), ((3, 2), (3, 1)), ((1, 2), (1, 3)), ((1, 3), (1, 2)), ((0, 0), (1, 0)), ((1, 0), (0, 0)), ((2, 2), (3, 2)), ((3, 2), (2, 2)), ((3, 2), (3, 3)), ((3, 3), (3, 2)), ((1, 0), (2, 0)), ((2, 0), (1, 0)), ((0, 0), (0, 1)), ((0, 1), (0, 0)), ((1, 1), (2, 1)), ((2, 1), (1, 1)), ((0, 2), (0, 3)), ((0, 3), (0, 2)), ((1, 2), (2, 2)), ((2, 2), (1, 2)), ((2, 1), (3, 1)), ((3, 1), (2, 1)), ((0, 1), (0, 2)), ((0, 2), (0, 1)), ((0, 2), (1, 2)), ((1, 2), (0, 2)), ((2, 0), (3, 0)), ((3, 0), (2, 0)), ((2, 3), (3, 3)), ((3, 3), (2, 3))]",1,1,0.3648,2,15,1
01,1,6,16,1,5,"[((1, 3), (2, 3)), ((2, 3), (1, 3)), ((2, 2), (2, 3)), ((2, 3), (2, 2)), ((1, 2), (2, 2)), ((2, 2), (1, 2)), ((1, 1), (1, 2)), ((1, 2), (1, 1)), ((3, 1), (3, 2)), ((3, 2), (3, 1)), ((0, 2), (1, 2)), ((1, 2), (0, 2)), ((0, 0), (1, 0)), ((1, 0), (0, 0)), ((0, 2), (0, 3)), ((0, 3), (0, 2)), ((1, 0), (1, 1)), ((1, 1), (1, 0)), ((2, 0), (2, 1)), ((2, 1), (2, 0)), ((2, 2), (3, 2)), ((3, 2), (2, 2)), ((2, 0), (3, 0)), ((3, 0), (2, 0)), ((2, 1), (3, 1)), ((3, 1), (2, 1)), ((0, 1), (0, 2)), ((0, 2), (0, 1)), ((1, 2), (1, 3)), ((1, 3), (1, 2)), ((2, 3), (3, 3)), ((3, 3), (2, 3))]",2,2,0.4298,5,12,1
01,1,7,17,2,5,"[((2, 2), (2, 3)), ((2, 3), (2, 2)), ((0, 3), (1, 3)), ((1, 3), (0, 3)), ((0, 2), (1, 2)), ((1, 2), (0, 2)), ((2, 3), (3, 3)), ((3, 3), (2, 3)), ((1, 0), (2, 0)), ((2, 0), (1, 0)), ((3, 1), (3, 2)), ((3, 2), (3, 1)), ((1, 3), (2, 3)), ((2, 3), (1, 3)), ((0, 1), (0, 2)), ((0, 2), (0, 1)), ((0, 1), (1, 1)), ((1, 1), (0, 1)), ((2, 1), (3, 1)), ((3, 1), (2, 1)), ((0, 2), (0, 3)), ((0, 3), (0, 2)), ((2, 0), (2, 1)), ((2, 1), (2, 0)), ((1, 1), (2, 1)), ((2, 1), (1, 1)), ((2, 2), (3, 2)), ((3, 2), (2, 2)), ((0, 0), (0, 1)), ((0, 1), (0, 0)), ((2, 0), (3, 0)), ((3, 0), (2, 0)), ((1, 0), (1, 1)), ((1, 1), (1, 0))]",3,3,0.4316,3,14,1
01,1,8,17,2,5,"[((3, 2), (3, 3)), ((3, 3), (3, 2)), ((1, 1), (2, 1)), ((2, 1), (1, 1)), ((2, 1), (2, 2)), ((2, 2), (2, 1)), ((2, 2), (2, 3)), ((2, 3), (2, 2)), ((0, 0), (1, 0)), ((1, 0), (0, 0)), ((1, 0), (1, 1)), ((1, 1), (1, 0)), ((0, 3), (1, 3)), ((1, 3), (0, 3)), ((0, 0), (0, 1)), ((0, 1), (0, 0)), ((1, 0), (2, 0)), ((2, 0), (1, 0)), ((2, 3), (3, 3)), ((3, 3), (2, 3)), ((0, 2), (1, 2)), ((1, 2), (0, 2)), ((1, 3), (2, 3)), ((2, 3), (1, 3)), ((1, 2), (2, 2)), ((2, 2), (1, 2)), ((1, 2), (1, 3)), ((1, 3), (1, 2)), ((3, 0), (3, 1)), ((3, 1), (3, 0)), ((2, 0), (3, 0)), ((3, 0), (2, 0)), ((0, 1), (1, 1)), ((1, 1), (0, 1))]",4,4,3.2799,14,3,1
01,1,9,17,2,5,"[((0, 1), (0, 2)), ((0, 2), (0, 1)), ((1, 2), (1, 3)), ((1, 3), (1, 2)), ((2, 0), (3, 0)), ((3, 0), (2, 0)), ((3, 2), (3, 3)), ((3, 3), (3, 2)), ((0, 2), (1, 2)), ((1, 2), (0, 2)), ((3, 1), (3, 2)), ((3, 2), (3, 1)), ((2, 1), (3, 1)), ((3, 1), (2, 1)), ((1, 1), (1, 2)), ((1, 2), (1, 1)), ((1, 0), (1, 1)), ((1, 1), (1, 0)), ((0, 0), (0, 1)), ((0, 1), (0, 0)), ((2, 2), (2, 3)), ((2, 3), (2, 2)), ((2, 1), (2, 2)), ((2, 2), (2, 1)), ((0, 3), (1, 3)), ((1, 3), (0, 3)), ((1, 0), (2, 0)), ((2, 0), (1, 0)), ((0, 2), (0, 3)), ((0, 3), (0, 2)), ((2, 0), (2, 1)), ((2, 1), (2, 0)), ((0, 0), (1, 0)), ((1, 0), (0, 0))]",3,3,0.5151,14,3,1
01,1,10,17,2,5,"[((0, 2), (1, 2)), ((1, 2), (0, 2)), ((0, 1), (1, 1)), ((1, 1), (0, 1)), ((1, 0), (1, 1)), ((1, 1), (1, 0)), ((1, 2), (1, 3)), ((1, 3), (1, 2)), ((0, 3), (1, 3)), ((1, 3), (0, 3)), ((0, 0), (0, 1)), ((0, 1), (0, 0)), ((3, 0), (3, 1)), ((3, 1), (3, 0)), ((1, 0), (2, 0)), ((2, 0), (1, 0)), ((1, 2), (2, 2)), ((2, 2), (1, 2)), ((1, 3), (2, 3)), ((2, 3), (1, 3)), ((0, 1), (0, 2)), ((0, 2), (0, 1)), ((2, 2), (2, 3)), ((2, 3), (2, 2)), ((3, 2), (3, 3)), ((3, 3), (3, 2)), ((2, 1), (3, 1)), ((3, 1), (2, 1)), ((0, 0), (1, 0)), ((1, 0), (0, 0)), ((3, 1), (3, 2)), ((3, 2), (3, 1)), ((2, 0), (3, 0)), ((3, 0), (2, 0))]",2,2,0.3293,14,3,1
01,1,11,16,1,5,"[((2, 1), (3, 1)), ((3, 1), (2, 1)), ((0, 1), (0, 2)), ((0, 2), (0, 1)), ((2, 0), (3, 0)), ((3, 0), (2, 0)), ((1, 2), (1, 3)), ((1, 3), (1, 2)), ((2, 2), (3, 2)), ((3, 2), (2, 2)), ((0, 0), (0, 1)), ((0, 1), (0, 0)), ((0, 2), (1, 2)), ((1, 2), (0, 2)), ((0, 1), (1, 1)), ((1, 1), (0, 1)), ((0, 3), (1, 3)), ((1, 3), (0, 3)), ((3, 2), (3, 3)), ((3, 3), (3, 2)), ((1, 1), (1, 2)), ((1, 2), (1, 1)), ((1, 0), (2, 0)), ((2, 0), (1, 0)), ((2, 0), (2, 1)), ((2, 1), (2, 0)), ((3, 1), (3, 2)), ((3, 2), (3, 1)), ((2, 2), (2, 3)), ((2, 3), (2, 2)), ((0, 0), (1, 0)), ((1, 0), (0, 0))]",1,1,0.648,12,5,1
01,1,12,18,3,5,"[((0, 3), (1, 3)), ((1, 3), (0, 3)), ((2, 0), (2, 1)), ((2, 1), (2, 0)), ((0, 0), (1, 0)), ((1, 0), (0, 0)), ((2, 0), (3, 0)), ((3, 0), (2, 0)), ((2, 1), (3, 1)), ((3, 1), (2, 1)), ((0, 0), (0, 1)), ((0, 1), (0, 0)), ((1, 2), (1, 3)), ((1, 3), (1, 2)), ((3, 1), (3, 2)), ((3, 2), (3, 1)), ((2, 2), (3, 2)), ((3, 2), (2, 2)), ((0, 2), (1, 2)), ((1, 2), (0, 2)), ((2, 3), (3, 3)), ((3, 3), (2, 3)), ((0, 2), (0, 3)), ((0, 3), (0, 2)), ((0, 1), (1, 1)), ((1, 1), (0, 1)), ((1, 3), (2, 3)), ((2, 3), (1, 3)), ((3, 0), (3, 1)), ((3, 1), (3, 0)), ((1, 0), (2, 0)), ((2, 0), (1, 0)), ((3, 2), (3, 3)), ((3, 3), (3, 2)), ((2, 2), (2, 3)), ((2, 3), (2, 2))]",6,2,0.3306,15,2,0
01,1,13,19,4,5,"[((3, 0), (3, 1)), ((3, 1), (3, 0)), ((0, 0), (1, 0)), ((1, 0), (0, 0)), ((0, 2), (1, 2)), ((1, 2), (0, 2)), ((1, 1), (1, 2)), ((1, 2), (1, 1)), ((2, 0), (2, 1)), ((2, 1), (2, 0)), ((2, 0), (3, 0)), ((3, 0), (2, 0)), ((2, 2), (2, 3)), ((2, 3), (2, 2)), ((0, 1), (1, 1)), ((1, 1), (0, 1)), ((3, 1), (3, 2)), ((3, 2), (3, 1)), ((3, 2), (3, 3)), ((3, 3), (3, 2)), ((2, 1), (2, 2)), ((2, 2), (2, 1)), ((1, 3), (2, 3)), ((2, 3), (1, 3)), ((0, 0), (0, 1)), ((0, 1), (0, 0)), ((1, 0), (1, 1)), ((1, 1), (1, 0)), ((0, 2), (0, 3)), ((0, 3), (0, 2)), ((2, 2), (3, 2)), ((3, 2), (2, 2)), ((1, 2), (2, 2)), ((2, 2), (1, 2)), ((1, 2), (1, 3)), ((1, 3), (1, 2)), ((0, 3), (1, 3)), ((1, 3), (0, 3))]",6,4,3.6983,9,8,0
01,1,14,17,2,5,"[((1, 2), (1, 3)), ((1, 3), (1, 2)), ((0, 3), (1, 3)), ((1, 3), (0, 3)), ((1, 3), (2, 3)), ((2, 3), (1, 3)), ((0, 1), (1, 1)), ((1, 1), (0, 1)), ((3, 1), (3, 2)), ((3, 2), (3, 1)), ((0, 0), (0, 1)), ((0, 1), (0, 0)), ((3, 2), (3, 3)), ((3, 3), (3, 2)), ((0, 2), (0, 3)), ((0, 3), (0, 2)), ((1, 1), (1, 2)), ((1, 2), (1, 1)), ((1, 1), (2, 1)), ((2, 1), (1, 1)), ((1, 0), (2, 0)), ((2, 0), (1, 0)), ((1, 2), (2, 2)), ((2, 2), (1, 2)), ((2, 0), (3, 0)), ((3, 0), (2, 0)), ((0, 0), (1, 0)), ((1, 0), (0, 0)), ((2, 2), (3, 2)), ((3, 2), (2, 2)), ((0, 2), (1, 2)), ((1, 2), (0, 2)), ((2, 1), (2, 2)), ((2, 2), (2, 1))]",4,3,1.095,5,12,0
01,1,15,17,2,5,"[((0, 2), (0, 3)), ((0, 3), (0, 2)), ((3, 1), (3, 2)), ((3, 2), (3, 1)), ((2, 3), (3, 3)), ((3, 3), (2, 3)), ((3, 0), (3, 1)), ((3, 1), (3, 0)), ((0, 0), (1, 0)), ((1, 0), (0, 0)), ((0, 2), (1, 2)), ((1, 2), (0, 2)), ((0, 0), (0, 1)), ((0, 1), (0, 0)), ((1, 3), (2, 3)), ((2, 3), (1, 3)), ((0, 3), (1, 3)), ((1, 3), (0, 3)), ((2, 2), (3, 2)), ((3, 2), (2, 2)), ((2, 0), (3, 0)), ((3, 0), (2, 0)), ((1, 2), (1, 3)), ((1, 3), (1, 2)), ((1, 0), (2, 0)), ((2, 0), (1, 0)), ((1, 1), (1, 2)), ((1, 2), (1, 1)), ((0, 1), (1, 1)), ((1, 1), (0, 1)), ((0, 1), (0, 2)), ((0, 2), (0, 1)), ((2, 1), (3, 1)), ((3, 1), (2, 1))]",4,4,2.2319,5,12,1
01,1,16,17,2,5,"[((1, 1), (1, 2)), ((1, 2), (1, 1)), ((3, 1), (3, 2)), ((3, 2), (3, 1)), ((0, 2), (1, 2)), ((1, 2), (0, 2)), ((3, 0), (3, 1)), ((3, 1), (3, 0)), ((2, 1), (3, 1)), ((3, 1), (2, 1)), ((0, 2), (0, 3)), ((0, 3), (0, 2)), ((2, 2), (2, 3)), ((2, 3), (2, 2)), ((1, 2), (2, 2)), ((2, 2), (1, 2)), ((2, 3), (3, 3)), ((3, 3), (2, 3)), ((1, 2), (1, 3)), ((1, 3), (1, 2)), ((1, 1), (2, 1)), ((2, 1), (1, 1)), ((0, 0), (0, 1)), ((0, 1), (0, 0)), ((0, 1), (0, 2)), ((0, 2), (0, 1)), ((2, 0), (2, 1)), ((2, 1), (2, 0)), ((2, 0), (3, 0)), ((3, 0), (2, 0)), ((0, 0), (1, 0)), ((1, 0), (0, 0)), ((1, 3), (2, 3)), ((2, 3), (1, 3))]",2,1,0.3775,12,5,0
01,1,17,18,3,5,"[((1, 1), (2, 1)), ((2, 1), (1, 1)), ((0, 2), (0, 3)), ((0, 3), (0, 2)), ((2, 2), (2, 3)), ((2, 3), (2, 2)), ((1, 2), (2, 2)), ((2, 2), (1, 2)), ((1, 2), (1, 3)), ((1, 3), (1, 2)), ((1, 3), (2, 3)), ((2, 3), (1, 3)), ((1, 1), (1, 2)), ((1, 2), (1, 1)), ((2, 3), (3, 3)), ((3, 3), (2, 3)), ((0, 3), (1, 3)), ((1, 3), (0, 3)), ((3, 1), (3, 2)), ((3, 2), (3, 1)), ((2, 1), (3, 1)), ((3, 1), (2, 1)), ((2, 0), (2, 1)), ((2, 1), (2, 0)), ((0, 0), (1, 0)), ((1, 0), (0, 0)), ((3, 0), (3, 1)), ((3, 1), (3, 0)), ((2, 0), (3, 0)), ((3, 0), (2, 0)), ((2, 2), (3, 2)), ((3, 2), (2, 2)), ((1, 0), (1, 1)), ((1, 1), (1, 0)), ((0, 1), (0, 2)), ((0, 2), (0, 1))]",6,5,1.1154,12,5,0
01,1,18,16,1,5,"[((2, 1), (2, 2)), ((2, 2), (2, 1)), ((3, 2), (3, 3)), ((3, 3), (3, 2)), ((2, 2), (2, 3)), ((2, 3), (2, 2)), ((3, 0), (3, 1)), ((3, 1), (3, 0)), ((2, 0), (3, 0)), ((3, 0), (2, 0)), ((0, 3), (1, 3)), ((1, 3), (0, 3)), ((0, 2), (1, 2)), ((1, 2), (0, 2)), ((0, 0), (1, 0)), ((1, 0), (0, 0)), ((0, 1), (0, 2)), ((0, 2), (0, 1)), ((1, 3), (2, 3)), ((2, 3), (1, 3)), ((1, 1), (2, 1)), ((2, 1), (1, 1)), ((1, 2), (2, 2)), ((2, 2), (1, 2)), ((3, 1), (3, 2)), ((3, 2), (3, 1)), ((2, 3), (3, 3)), ((3, 3), (2, 3)), ((1, 0), (2, 0)), ((2, 0), (1, 0)), ((2, 1), (3, 1)), ((3, 1), (2, 1))]",2,2,0.4101,5,12,1
01,1,19,18,3,5,"[((2, 3), (3, 3)), ((3, 3), (2, 3)), ((2, 1), (2, 2)), ((2, 2), (2, 1)), ((2, 1), (3, 1)), ((3, 1), (2, 1)), ((1, 1), (1, 2)), ((1, 2), (1, 1)), ((0, 0), (0, 1)), ((0, 1), (0, 0)), ((2, 0), (3, 0)), ((3, 0), (2, 0)), ((0, 2), (1, 2)), ((1, 2), (0, 2)), ((2, 2), (3, 2)), ((3, 2), (2, 2)), ((1, 3), (2, 3)), ((2, 3), (1, 3)), ((3, 0), (3, 1)), ((3, 1), (3, 0)), ((1, 1), (2, 1)), ((2, 1), (1, 1)), ((2, 2), (2, 3)), ((2, 3), (2, 2)), ((1, 0), (2, 0)), ((2, 0), (1, 0)), ((0, 2), (0, 3)), ((0, 3), (0, 2)), ((0, 0), (1, 0)), ((1, 0), (0, 0)), ((0, 1), (0, 2)), ((0, 2), (0, 1)), ((3, 2), (3, 3)), ((3, 3), (3, 2)), ((3, 1), (3, 2)), ((3, 2), (3, 1))]",4,4,0.7821,3,14,1
01,1,20,17,2,5,"[((0, 0), (1, 0)), ((1, 0), (0, 0)), ((3, 2), (3, 3)), ((3, 3), (3, 2)), ((2, 2), (2, 3)), ((2, 3), (2, 2)), ((0, 1), (0, 2)), ((0, 2), (0, 1)), ((1, 1), (1, 2)), ((1, 2), (1, 1)), ((0, 2), (0, 3)), ((0, 3), (0, 2)), ((1, 1), (2, 1)), ((2, 1), (1, 1)), ((0, 2), (1, 2)), ((1, 2), (0, 2)), ((2, 0), (3, 0)), ((3, 0), (2, 0)), ((0, 0), (0, 1)), ((0, 1), (0, 0)), ((0, 3), (1, 3)), ((1, 3), (0, 3)), ((0, 1), (1, 1)), ((1, 1), (0, 1)), ((1, 0), (1, 1)), ((1, 1), (1, 0)), ((2, 1), (2, 2)), ((2, 2), (2, 1)), ((3, 0), (3, 1)), ((3, 1), (3, 0)), ((2, 0), (2, 1)), ((2, 1), (2, 0)), ((2, 2), (3, 2)), ((3, 2), (2, 2))]",5,3,0.564,12,5,0
01,1,21,18,3,5,"[((2, 3), (3, 3)), ((3, 3), (2, 3)), ((0, 1), (0, 2)), ((0, 2), (0, 1)), ((3, 1), (3, 2)), ((3, 2), (3, 1)), ((0, 2), (1, 2)), ((1, 2), (0, 2)), ((0, 3), (1, 3)), ((1, 3), (0, 3)), ((2, 0), (2, 1)), ((2, 1), (2, 0)), ((3, 0), (3, 1)), ((3, 1), (3, 0)), ((0, 0), (1, 0)), ((1, 0), (0, 0)), ((1, 1), (2, 1)), ((2, 1), (1, 1)), ((2, 2), (3, 2)), ((3, 2), (2, 2)), ((0, 0), (0, 1)), ((0, 1), (0, 0)), ((2, 1), (3, 1)), ((3, 1), (2, 1)), ((2, 0), (3, 0)), ((3, 0), (2, 0)), ((1, 2), (2, 2)), ((2, 2), (1, 2)), ((1, 1), (1, 2)), ((1, 2), (1, 1)), ((0, 1), (1, 1)), ((1, 1), (0, 1)), ((3, 2), (3, 3)), ((3, 3), (3, 2)), ((1, 3), (2, 3)), ((2, 3), (1, 3))]",6,4,3.7317,5,12,0
01,1,22,17,2,5,"[((0, 3), (1, 3)), ((1, 3), (0, 3)), ((0, 0), (1, 0)), ((1, 0), (0, 0)), ((3, 1), (3, 2)), ((3, 2), (3, 1)), ((0, 1), (0, 2)), ((0, 2), (0, 1)), ((0, 1), (1, 1)), ((1, 1), (0, 1)), ((2, 2), (3, 2)), ((3, 2), (2, 2)), ((2, 3), (3, 3)), ((3, 3), (2, 3)), ((1, 2), (1, 3)), ((1, 3), (1, 2)), ((1, 3), (2, 3)), ((2, 3), (1, 3)), ((0, 0), (0, 1)), ((0, 1), (0, 0)), ((2, 0), (2, 1)), ((2, 1), (2, 0)), ((2, 1), (3, 1)), ((3, 1), (2, 1)), ((1, 0), (1, 1)), ((1, 1), (1, 0)), ((0, 2), (1, 2)), ((1, 2), (0, 2)), ((2, 1), (2, 2)), ((2, 2), (2, 1)), ((3, 0), (3, 1)), ((3, 1), (3, 0)), ((1, 2), (2, 2)), ((2, 2), (1, 2))]",2,2,0.3281,14,3,1
01,1,23,17,2,5,"[((2, 1), (2, 2)), ((2, 2), (2, 1)), ((0, 2), (1, 2)), ((1, 2), (0, 2)), ((2, 0), (2, 1)), ((2, 1), (2, 0)), ((3, 2), (3, 3)), ((3, 3), (3, 2)), ((3, 0), (3, 1)), ((3, 1), (3, 0)), ((0, 2), (0, 3)), ((0, 3), (0, 2)), ((1, 0), (2, 0)), ((2, 0), (1, 0)), ((1, 3), (2, 3)), ((2, 3), (1, 3)), ((2, 2), (3, 2)), ((3, 2), (2, 2)), ((1, 0), (1, 1)), ((1, 1), (1, 0)), ((0, 0), (1, 0)), ((1, 0), (0, 0)), ((0, 1), (1, 1)), ((1, 1), (0, 1)), ((2, 0), (3, 0)), ((3, 0), (2, 0)), ((2, 2), (2, 3)), ((2, 3), (2, 2)), ((3, 1), (3, 2)), ((3, 2), (3, 1)), ((1, 2), (1, 3)), ((1, 3), (1, 2)), ((2, 3), (3, 3)), ((3, 3), (2, 3))]",4,4,1.615,5,12,1
01,1,24,17,2,5,"[((0, 3), (1, 3)), ((1, 3), (0, 3)), ((2, 3), (3, 3)), ((3, 3), (2, 3)), ((2, 0), (2, 1)), ((2, 1), (2, 0)), ((0, 1), (0, 2)), ((0, 2), (0, 1)), ((1, 1), (1, 2)), ((1, 2), (1, 1)), ((0, 1), (1, 1)), ((1, 1), (0, 1)), ((0, 2), (0, 3)), ((0, 3), (0, 2)), ((3, 0), (3, 1)), ((3, 1), (3, 0)), ((1, 2), (2, 2)), ((2, 2), (1, 2)), ((2, 2), (3, 2)), ((3, 2), (2, 2)), ((0, 0), (1, 0)), ((1, 0), (0, 0)), ((1, 1), (2, 1)), ((2, 1), (1, 1)), ((1, 3), (2, 3)), ((2, 3), (1, 3)), ((0, 2), (1, 2)), ((1, 2), (0, 2)), ((0, 0), (0, 1)), ((0, 1), (0, 0)), ((3, 1), (3, 2)), ((3, 2), (3, 1)), ((1, 0), (2, 0)), ((2, 0), (1, 0))]",4,4,3.23,5,12,1
01,1,25,17,2,5,"[((3, 1), (3, 2)), ((3, 2), (3, 1)), ((0, 0), (1, 0)), ((1, 0), (0, 0)), ((1, 2), (2, 2)), ((2, 2), (1, 2)), ((0, 3), (1, 3)), ((1, 3), (0, 3)), ((1, 1), (2, 1)), ((2, 1), (1, 1)), ((1, 0), (1, 1)), ((1, 1), (1, 0)), ((3, 0), (3, 1)), ((3, 1), (3, 0)), ((2, 3), (3, 3)), ((3, 3), (2, 3)), ((2, 2), (3, 2)), ((3, 2), (2, 2)), ((1, 0), (2, 0)), ((2, 0), (1, 0)), ((1, 3), (2, 3)), ((2, 3), (1, 3)), ((2, 2), (2, 3)), ((2, 3), (2, 2)), ((0, 2), (0, 3)), ((0, 3), (0, 2)), ((0, 0), (0, 1)), ((0, 1), (0, 0)), ((0, 1), (1, 1)), ((1, 1), (0, 1)), ((0, 1), (0, 2)), ((0, 2), (0, 1)), ((2, 0), (2, 1)), ((2, 1), (2, 0))]",1,1,1.5648,15,2,1
01,1,26,17,2,5,"[((2, 0), (3, 0)), ((3, 0), (2, 0)), ((2, 2), (2, 3)), ((2, 3), (2, 2)), ((2, 1), (3, 1)), ((3, 1), (2, 1)), ((0, 0), (1, 0)), ((1, 0), (0, 0)), ((3, 1), (3, 2)), ((3, 2), (3, 1)), ((1, 2), (2, 2)), ((2, 2), (1, 2)), ((0, 2), (0, 3)), ((0, 3), (0, 2)), ((1, 1), (1, 2)), ((1, 2), (1, 1)), ((3, 0), (3, 1)), ((3, 1), (3, 0)), ((0, 3), (1, 3)), ((1, 3), (0, 3)), ((0, 1), (1, 1)), ((1, 1), (0, 1)), ((2, 1), (2, 2)), ((2, 2), (2, 1)), ((1, 3), (2, 3)), ((2, 3), (1, 3)), ((3, 2), (3, 3)), ((3, 3), (3, 2)), ((0, 2), (1, 2)), ((1, 2), (0, 2)), ((1, 0), (2, 0)), ((2, 0), (1, 0)), ((1, 1), (2, 1)), ((2, 1), (1, 1))]",3,3,3.8471,2,15,1
01,1,27,15,0,5,"[((0, 0), (0, 1)), ((0, 1), (0, 0)), ((0, 1), (0, 2)), ((0, 2), (0, 1)), ((0, 2), (0, 3)), ((0, 3), (0, 2)), ((3, 2), (3, 3)), ((3, 3), (3, 2)), ((1, 1), (1, 2)), ((1, 2), (1, 1)), ((0, 2), (1, 2)), ((1, 2), (0, 2)), ((2, 1), (3, 1)), ((3, 1), (2, 1)), ((0, 3), (1, 3)), ((1, 3), (0, 3)), ((2, 0), (3, 0)), ((3, 0), (2, 0)), ((2, 3), (3, 3)), ((3, 3), (2, 3)), ((1, 2), (2, 2)), ((2, 2), (1, 2)), ((1, 0), (1, 1)), ((1, 1), (1, 0)), ((1, 1), (2, 1)), ((2, 1), (1, 1)), ((3, 0), (3, 1)), ((3, 1), (3, 0)), ((3, 1), (3, 2)), ((3, 2), (3, 1))]",1,1,0.3313,3,14,1
01,1,28,17,2,5,"[((2, 1), (2, 2)), ((2, 2), (2, 1)), ((0, 3), (1, 3)), ((1, 3), (0, 3)), ((0, 2), (1, 2)), ((1, 2), (0, 2)), ((3, 2), (3, 3)), ((3, 3), (3, 2)), ((0, 1), (1, 1)), ((1, 1), (0, 1)), ((3, 1), (3, 2)), ((3, 2), (3, 1)), ((1, 1), (1, 2)), ((1, 2), (1, 1)), ((1, 2), (2, 2)), ((2, 2), (1, 2)), ((2, 2), (2, 3)), ((2, 3), (2, 2)), ((1, 0), (1, 1)), ((1, 1), (1, 0)), ((2, 0), (2, 1)), ((2, 1), (2, 0)), ((2, 2), (3, 2)), ((3, 2), (2, 2)), ((2, 3), (3, 3)), ((3, 3), (2, 3)), ((2, 0), (3, 0)), ((3, 0), (2, 0)), ((1, 3), (2, 3)), ((2, 3), (1, 3)), ((0, 0), (0, 1)), ((0, 1), (0, 0)), ((1, 2), (1, 3)), ((1, 3), (1, 2))]",3,3,0.4938,5,12,1
01,1,29,16,1,5,"[((1, 2), (1, 3)), ((1, 3), (1, 2)), ((1, 1), (1, 2)), ((1, 2), (1, 1)), ((2, 0), (2, 1)), ((2, 1), (2, 0)), ((1, 0), (2, 0)), ((2, 0), (1, 0)), ((1, 3), (2, 3)), ((2, 3), (1, 3)), ((2, 2), (2, 3)), ((2, 3), (2, 2)), ((0, 2), (0, 3)), ((0, 3), (0, 2)), ((1, 2), (2, 2)), ((2, 2), (1, 2)), ((0, 0), (1, 0)), ((1, 0), (0, 0)), ((2, 3), (3, 3)), ((3, 3), (2, 3)), ((3, 0), (3, 1)), ((3, 1), (3, 0)), ((0, 3), (1, 3)), ((1, 3), (0, 3)), ((1, 0), (1, 1)), ((1, 1), (1, 0)), ((3, 2), (3, 3)), ((3, 3), (3, 2)), ((2, 1), (3, 1)), ((3, 1), (2, 1)), ((0, 0), (0, 1)), ((0, 1), (0, 0))]",2,2,0.381,8,9,1
01,1,30,18,3,5,"[((0, 3), (1, 3)), ((1, 3), (0, 3)), ((0, 2), (1, 2)), ((1, 2), (0, 2)), ((0, 1), (0, 2)), ((0, 2), (0, 1)), ((3, 1), (3, 2)), ((3, 2), (3, 1)), ((1, 1), (1, 2)), ((1, 2), (1, 1)), ((1, 1), (2, 1)), ((2, 1), (1, 1)), ((2, 0), (2, 1)), ((2, 1), (2, 0)), ((2, 1), (3, 1)), ((3, 1), (2, 1)), ((1, 2), (2, 2)), ((2, 2), (1, 2)), ((2, 1), (2, 2)), ((2, 2), (2, 1)), ((0, 0), (0, 1)), ((0, 1), (0, 0)), ((3, 2), (3, 3)), ((3, 3), (3, 2)), ((0, 0), (1, 0)), ((1, 0), (0, 0)), ((1, 3), (2, 3)), ((2, 3), (1, 3)), ((2, 2), (3, 2)), ((3, 2), (2, 2)), ((0, 2), (0, 3)), ((0, 3), (0, 2)), ((3, 0), (3, 1)), ((3, 1), (3, 0)), ((1, 0), (2, 0)), ((2, 0), (1, 0))]",6,5,3.0464,5,12,0
01,1,31,17,2,5,"[((2, 2), (3, 2)), ((3, 2), (2, 2)), ((0, 2), (0, 3)), ((0, 3), (0, 2)), ((3, 2), (3, 3)), ((3, 3), (3, 2)), ((1, 2), (1, 3)), ((1, 3), (1, 2)), ((3, 1), (3, 2)), ((3, 2), (3, 1)), ((3, 0), (3, 1)), ((3, 1), (3, 0)), ((1, 0), (2, 0)), ((2, 0), (1, 0)), ((0, 2), (1, 2)), ((1, 2), (0, 2)), ((0, 1), (1, 1)), ((1, 1), (0, 1)), ((2, 1), (2, 2)), ((2, 2), (2, 1)), ((2, 2), (2, 3)), ((2, 3), (2, 2)), ((0, 3), (1, 3)), ((1, 3), (0, 3)), ((1, 2), (2, 2)), ((2, 2), (1, 2)), ((1, 3), (2, 3)), ((2, 3), (1, 3)), ((2, 0), (3, 0)), ((3, 0), (2, 0)), ((1, 1), (2, 1)), ((2, 1), (1, 1)), ((0, 0), (0, 1)), ((0, 1), (0, 0))]",5,3,0.5147,8,9,0
01,1,32,17,2,5,"[((3, 2), (3, 3)), ((3, 3), (3, 2)), ((1, 2), (1, 3)), ((1, 3), (1, 2)), ((0, 0), (1, 0)), ((1, 0), (0, 0)), ((1, 0), (1, 1)), ((1, 1), (1, 0)), ((0, 1), (1, 1)), ((1, 1), (0, 1)), ((0, 3), (1, 3)), ((1, 3), (0, 3)), ((1, 3), (2, 3)), ((2, 3), (1, 3)), ((1, 1), (2, 1)), ((2, 1), (1, 1)), ((0, 2), (1, 2)), ((1, 2), (0, 2)), ((2, 2), (3, 2)), ((3, 2), (2, 2)), ((2, 1), (2, 2)), ((2, 2), (2, 1)), ((1, 0), (2, 0)), ((2, 0), (1, 0)), ((0, 2), (0, 3)), ((0, 3), (0, 2)), ((2, 2), (2, 3)), ((2, 3), (2, 2)), ((3, 0), (3, 1)), ((3, 1), (3, 0)), ((0, 1), (0, 2)), ((0, 2), (0, 1)), ((2, 0), (3, 0)), ((3, 0), (2, 0))]",3,3,0.2969,12,5,1
01,1,33,18,3,5,"[((3, 1), (3, 2)), ((3, 2), (3, 1)), ((2, 3), (3, 3)), ((3, 3), (2, 3)), ((0, 0), (1, 0)), ((1, 0), (0, 0)), ((1, 0), (2, 0)), ((2, 0), (1, 0)), ((1, 1), (1, 2)), ((1, 2), (1, 1)), ((2, 2), (2, 3)), ((2, 3), (2, 2)), ((0, 0), (0, 1)), ((0, 1), (0, 0)), ((3, 2), (3, 3)), ((3, 3), (3, 2)), ((0, 1), (1, 1)), ((1, 1), (0, 1)), ((1, 2), (1, 3)), ((1, 3), (1, 2)), ((2, 0), (3, 0)), ((3, 0), (2, 0)), ((0, 2), (0, 3)), ((0, 3), (0, 2)), ((2, 1), (3, 1)), ((3, 1), (2, 1)), ((1, 2), (2, 2)), ((2, 2), (1, 2)), ((1, 0), (1, 1)), ((1, 1), (1, 0)), ((0, 3), (1, 3)), ((1, 3), (0, 3)), ((2, 1), (2, 2)), ((2, 2), (2, 1)), ((0, 1), (0, 2)), ((0, 2), (0, 1))]",4,4,1.3462,8,9,1
01,1,34,17,2,5,"[((0, 2), (1, 2)), ((1, 2), (0, 2)), ((2, 1), (2, 2)), ((2, 2), (2, 1)), ((2, 0), (3, 0)), ((3, 0), (2, 0)), ((0, 3), (1, 3)), ((1, 3), (0, 3)), ((0, 0), (0, 1)), ((0, 1), (0, 0)), ((3, 2), (3, 3)), ((3, 3), (3, 2)), ((3, 0), (3, 1)), ((3, 1), (3, 0)), ((0, 1), (0, 2)), ((0, 2), (0, 1)), ((2, 2), (2, 3)), ((2, 3), (2, 2)), ((1, 3), (2, 3)), ((2, 3), (1, 3)), ((1, 1), (1, 2)), ((1, 2), (1, 1)), ((1, 0), (1, 1)), ((1, 1), (1, 0)), ((2, 2), (3, 2)), ((3, 2), (2, 2)), ((1, 0), (2, 0)), ((2, 0), (1, 0)), ((0, 1), (1, 1)), ((1, 1), (0, 1)), ((0, 0), (1, 0)), ((1, 0), (0, 0)), ((2, 1), (3, 1)), ((3, 1), (2, 1))]",5,3,1.9301,2,15,0
01,1,35,17,2,5,"[((1, 0), (2, 0)), ((2, 0), (1, 0)), ((3, 1), (3, 2)), ((3, 2), (3, 1)), ((0, 2), (0, 3)), ((0, 3), (0, 2)), ((2, 1), (3, 1)), ((3, 1), (2, 1)), ((1, 1), (1, 2)), ((1, 2), (1, 1)), ((1, 0), (1, 1)), ((1, 1), (1, 0)), ((2, 3), (3, 3)), ((3, 3), (2, 3)), ((3, 2), (3, 3)), ((3, 3), (3, 2)), ((0, 0), (0, 1)), ((0, 1), (0, 0)), ((1, 3), (2, 3)), ((2, 3), (1, 3)), ((2, 2), (2, 3)), ((2, 3), (2, 2)), ((0, 2), (1, 2)), ((1, 2), (0, 2)), ((0, 1), (0, 2)), ((0, 2), (0, 1)), ((1, 2), (1, 3)), ((1, 3), (1, 2)), ((3, 0), (3, 1)), ((3, 1), (3, 0)), ((2, 2), (3, 2)), ((3, 2), (2, 2)), ((2, 0), (3, 0)), ((3, 0), (2, 0))]",3,3,0.3809,3,14,1
01,1,36,16,1,5,"[((3, 1), (3, 2)), ((3, 2), (3, 1)), ((2, 1), (3, 1)), ((3, 1), (2, 1)), ((1, 1), (1, 2)), ((1, 2), (1, 1)), ((1, 2), (1, 3)), ((1, 3), (1, 2)), ((2, 0), (3, 0)), ((3, 0), (2, 0)), ((1, 0), (1, 1)), ((1, 1), (1, 0)), ((1, 0), (2, 0)), ((2, 0), (1, 0)), ((3, 0), (3, 1)), ((3, 1), (3, 0)), ((0, 1), (0, 2)), ((0, 2), (0, 1)), ((2, 2), (3, 2)), ((3, 2), (2, 2)), ((0, 3), (1, 3)), ((1, 3), (0, 3)), ((1, 3), (2, 3)), ((2, 3), (1, 3)), ((2, 3), (3, 3)), ((3, 3), (2, 3)), ((2, 1), (2, 2)), ((2, 2), (2, 1)), ((0, 1), (1, 1)), ((1, 1), (0, 1)), ((0, 0), (1, 0)), ((1, 0), (0, 0))]",1,1,0.2593,12,5,1
01,1,37,18,3,5,"[((0, 2), (0, 3)), ((0, 3), (0, 2)), ((0, 1), (0, 2)), ((0, 2), (0, 1)), ((0, 0), (0, 1)), ((0, 1), (0, 0)), ((3, 0), (3, 1)), ((3, 1), (3, 0)), ((2, 1), (3, 1)), ((3, 1), (2, 1)), ((3, 1), (3, 2)), ((3, 2), (3, 1)), ((0, 3), (1, 3)), ((1, 3), (0, 3)), ((3, 2), (3, 3)), ((3, 3), (3, 2)), ((1, 2), (1, 3)), ((1, 3), (1, 2)), ((1, 1), (2, 1)), ((2, 1), (1, 1)), ((1, 0), (2, 0)), ((2, 0), (1, 0)), ((2, 0), (2, 1)), ((2, 1), (2, 0)), ((2, 2), (2, 3)), ((2, 3), (2, 2)), ((1, 2), (2, 2)), ((2, 2), (1, 2)), ((1, 0), (1, 1)), ((1, 1), (1, 0)), ((2, 3), (3, 3)), ((3, 3), (2, 3)), ((2, 0), (3, 0)), ((3, 0), (2, 0)), ((2, 2), (3, 2)), ((3, 2), (2, 2))]",2,2,0.3977,15,2,1
01,1,38,18,3,5,"[((0, 1), (0, 2)), ((0, 2), (0, 1)), ((3, 1), (3, 2)), ((3, 2), (3, 1)), ((1, 3), (2, 3)), ((2, 3), (1, 3)), ((2, 1), (3, 1)), ((3, 1), (2, 1)), ((0, 0), (1, 0)), ((1, 0), (0, 0)), ((1, 0), (2, 0)), ((2, 0), (1, 0)), ((2, 1), (2, 2)), ((2, 2), (2, 1)), ((0, 3), (1, 3)), ((1, 3), (0, 3)), ((0, 1), (1, 1)), ((1, 1), (0, 1)), ((2, 3), (3, 3)), ((3, 3), (2, 3)), ((1, 2), (1, 3)), ((1, 3), (1, 2)), ((0, 2), (1, 2)), ((1, 2), (0, 2)), ((0, 2), (0, 3)), ((0, 3), (0, 2)), ((1, 0), (1, 1)), ((1, 1), (1, 0)), ((2, 0), (2, 1)), ((2, 1), (2, 0)), ((1, 1), (1, 2)), ((1, 2), (1, 1)), ((3, 0), (3, 1)), ((3, 1), (3, 0)), ((3, 2), (3, 3)), ((3, 3), (3, 2))]",5,6,2.9807,12,5,0
01,1,39,17,2,5,"[((2, 0), (2, 1)), ((2, 1), (2, 0)), ((2, 1), (3, 1)), ((3, 1), (2, 1)), ((0, 2), (1, 2)), ((1, 2), (0, 2)), ((1, 2), (2, 2)), ((2, 2), (1, 2)), ((3, 1), (3, 2)), ((3, 2), (3, 1)), ((1, 0), (1, 1)), ((1, 1), (1, 0)), ((2, 2), (2, 3)), ((2, 3), (2, 2)), ((3, 0), (3, 1)), ((3, 1), (3, 0)), ((0, 0), (1, 0)), ((1, 0), (0, 0)), ((0, 1), (0, 2)), ((0, 2), (0, 1)), ((2, 2), (3, 2)), ((3, 2), (2, 2)), ((3, 2), (3, 3)), ((3, 3), (3, 2)), ((0, 2), (0, 3)), ((0, 3), (0, 2)), ((0, 3), (1, 3)), ((1, 3), (0, 3)), ((0, 0), (0, 1)), ((0, 1), (0, 0)), ((1, 1), (1, 2)), ((1, 2), (1, 1)), ((0, 1), (1, 1)), ((1, 1), (0, 1))]",5,3,4.0983,2,15,0
01,1,40,18,3,5,"[((2, 0), (2, 1)), ((2, 1), (2, 0)), ((2, 0), (3, 0)), ((3, 0), (2, 0)), ((2, 3), (3, 3)), ((3, 3), (2, 3)), ((1, 3), (2, 3)), ((2, 3), (1, 3)), ((1, 1), (2, 1)), ((2, 1), (1, 1)), ((3, 0), (3, 1)), ((3, 1), (3, 0)), ((0, 3), (1, 3)), ((1, 3), (0, 3)), ((1, 0), (1, 1)), ((1, 1), (1, 0)), ((0, 2), (0, 3)), ((0, 3), (0, 2)), ((1, 0), (2, 0)), ((2, 0), (1, 0)), ((0, 1), (1, 1)), ((1, 1), (0, 1)), ((0, 0), (1, 0)), ((1, 0), (0, 0)), ((0, 1), (0, 2)), ((0, 2), (0, 1)), ((1, 1), (1, 2)), ((1, 2), (1, 1)), ((3, 2), (3, 3)), ((3, 3), (3, 2)), ((2, 2), (2, 3)), ((2, 3), (2, 2)), ((0, 0), (0, 1)), ((0, 1), (0, 0)), ((2, 2), (3, 2)), ((3, 2), (2, 2))]",5,3,2.0311,5,12,0
01,1,41,17,2,5,"[((1, 0), (2, 0)), ((2, 0), (1, 0)), ((1, 2), (1, 3)), ((1, 3), (1, 2)), ((2, 2), (2, 3)), ((2, 3), (2, 2)), ((0, 2), (0, 3)), ((0, 3), (0, 2)), ((2, 1), (3, 1)), ((3, 1), (2, 1)), ((0, 2), (1, 2)), ((1, 2), (0, 2)), ((2, 0), (2, 1)), ((2, 1), (2, 0)), ((1, 2), (2, 2)), ((2, 2), (1, 2)), ((1, 1), (2, 1)), ((2, 1), (1, 1)), ((3, 1), (3, 2)), ((3, 2), (3, 1)), ((0, 1), (0, 2)), ((0, 2), (0, 1)), ((1, 3), (2, 3)), ((2, 3), (1, 3)), ((0, 0), (0, 1)), ((0, 1), (0, 0)), ((2, 2), (3, 2)), ((3, 2), (2, 2)), ((2, 3), (3, 3)), ((3, 3), (2, 3)), ((1, 1), (1, 2)), ((1, 2), (1, 1)), ((3, 0), (3, 1)), ((3, 1), (3, 0))]",5,3,0.4484,2,15,0
01,1,42,16,1,5,"[((3, 2), (3, 3)), ((3, 3), (3, 2)), ((3, 0), (3, 1)), ((3, 1), (3, 0)), ((2, 3), (3, 3)), ((3, 3), (2, 3)), ((3, 1), (3, 2)), ((3, 2), (3, 1)), ((2, 0), (3, 0)), ((3, 0), (2, 0)), ((0, 0), (1, 0)), ((1, 0), (0, 0)), ((0, 2), (0, 3)), ((0, 3), (0, 2)), ((1, 1), (2, 1)), ((2, 1), (1, 1)), ((0, 1), (0, 2)), ((0, 2), (0, 1)), ((2, 1), (3, 1)), ((3, 1), (2, 1)), ((0, 0), (0, 1)), ((0, 1), (0, 0)), ((1, 3), (2, 3)), ((2, 3), (1, 3)), ((0, 3), (1, 3)), ((1, 3), (0, 3)), ((2, 0), (2, 1)), ((2, 1), (2, 0)), ((1, 2), (1, 3)), ((1, 3), (1, 2)), ((2, 2), (3, 2)), ((3, 2), (2, 2))]",1,1,0.2632,15,2,1
01,1,43,15,0,5,"[((2, 0), (3, 0)), ((3, 0), (2, 0)), ((2, 0), (2, 1)), ((2, 1), (2, 0)), ((3, 1), (3, 2)), ((3, 2), (3, 1)), ((1, 3), (2, 3)), ((2, 3), (1, 3)), ((0, 2), (0, 3)), ((0, 3), (0, 2)), ((0, 0), (1, 0)), ((1, 0), (0, 0)), ((2, 2), (3, 2)), ((3, 2), (2, 2)), ((0, 0), (0, 1)), ((0, 1), (0, 0)), ((0, 1), (0, 2)), ((0, 2), (0, 1)), ((2, 2), (2, 3)), ((2, 3), (2, 2)), ((1, 2), (1, 3)), ((1, 3), (1, 2)), ((3, 2), (3, 3)), ((3, 3), (3, 2)), ((1, 0), (1, 1)), ((1, 1), (1, 0)), ((1, 0), (2, 0)), ((2, 0), (1, 0)), ((2, 1), (3, 1)), ((3, 1), (2, 1))]",1,1,0.315,8,9,1
01,1,44,17,2,5,"[((2, 3), (3, 3)), ((3, 3), (2, 3)), ((0, 1), (1, 1)), ((1, 1), (0, 1)), ((1, 0), (1, 1)), ((1, 1), (1, 0)), ((1, 2), (2, 2)), ((2, 2), (1, 2)), ((0, 2), (1, 2)), ((1, 2), (0, 2)), ((2, 1), (2, 2)), ((2, 2), (2, 1)), ((0, 0), (1, 0)), ((1, 0), (0, 0)), ((2, 0), (3, 0)), ((3, 0), (2, 0)), ((1, 1), (2, 1)), ((2, 1), (1, 1)), ((0, 3), (1, 3)), ((1, 3), (0, 3)), ((2, 2), (3, 2)), ((3, 2), (2, 2)), ((0, 2), (0, 3)), ((0, 3), (0, 2)), ((3, 2), (3, 3)), ((3, 3), (3, 2)), ((2, 1), (3, 1)), ((3, 1), (2, 1)), ((0, 0), (0, 1)), ((0, 1), (0, 0)), ((0, 1), (0, 2)), ((0, 2), (0, 1)), ((3, 0), (3, 1)), ((3, 1), (3, 0))]",3,3,1.0142,15,2,1
01,1,45,18,3,5,"[((3, 0), (3, 1)), ((3, 1), (3, 0)), ((0, 0), (0, 1)), ((0, 1), (0, 0)), ((2, 0), (2, 1)), ((2, 1), (2, 0)), ((0, 1), (1, 1)), ((1, 1), (0, 1)), ((0, 2), (0, 3)), ((0, 3), (0, 2)), ((2, 2), (3, 2)), ((3, 2), (2, 2)), ((0, 2), (1, 2)), ((1, 2), (0, 2)), ((1, 3), (2, 3)), ((2, 3), (1, 3)), ((2, 3), (3, 3)), ((3, 3), (2, 3)), ((1, 1), (1, 2)), ((1, 2), (1, 1)), ((1, 2), (2, 2)), ((2, 2), (1, 2)), ((0, 0), (1, 0)), ((1, 0), (0, 0)), ((1, 0), (1, 1)), ((1, 1), (1, 0)), ((2, 0), (3, 0)), ((3, 0), (2, 0)), ((2, 1), (3, 1)), ((3, 1), (2, 1)), ((3, 1), (3, 2)), ((3, 2), (3, 1)), ((0, 3), (1, 3)), ((1, 3), (0, 3)), ((1, 2), (1, 3)), ((1, 3), (1, 2))]",4,3,0.2482,5,12,0
01,1,46,18,3,5,"[((3, 1), (3, 2)), ((3, 2), (3, 1)), ((1, 1), (1, 2)), ((1, 2), (1, 1)), ((0, 1), (0, 2)), ((0, 2), (0, 1)), ((3, 2), (3, 3)), ((3, 3), (3, 2)), ((0, 0), (1, 0)), ((1, 0), (0, 0)), ((0, 3), (1, 3)), ((1, 3), (0, 3)), ((3, 0), (3, 1)), ((3, 1), (3, 0)), ((1, 0), (1, 1)), ((1, 1), (1, 0)), ((0, 2), (1, 2)), ((1, 2), (0, 2)), ((2, 2), (2, 3)), ((2, 3), (2, 2)), ((1, 2), (1, 3)), ((1, 3), (1, 2)), ((2, 0), (3, 0)), ((3, 0), (2, 0)), ((1, 1), (2, 1)), ((2, 1), (1, 1)), ((1, 3), (2, 3)), ((2, 3), (1, 3)), ((2, 3), (3, 3)), ((3, 3), (2, 3)), ((2, 1), (3, 1)), ((3, 1), (2, 1)), ((2, 1), (2, 2)), ((2, 2), (2, 1)), ((0, 2), (0, 3)), ((0, 3), (0, 2))]",6,4,0.4802,9,8,0
01,1,47,18,3,5,"[((1, 2), (2, 2)), ((2, 2), (1, 2)), ((3, 0), (3, 1)), ((3, 1), (3, 0)), ((0, 2), (1, 2)), ((1, 2), (0, 2)), ((1, 0), (2, 0)), ((2, 0), (1, 0)), ((1, 1), (1, 2)), ((1, 2), (1, 1)), ((3, 2), (3, 3)), ((3, 3), (3, 2)), ((1, 0), (1, 1)), ((1, 1), (1, 0)), ((2, 1), (3, 1)), ((3, 1), (2, 1)), ((3, 1), (3, 2)), ((3, 2), (3, 1)), ((2, 0), (2, 1)), ((2, 1), (2, 0)), ((0, 0), (1, 0)), ((1, 0), (0, 0)), ((0, 0), (0, 1)), ((0, 1), (0, 0)), ((2, 0), (3, 0)), ((3, 0), (2, 0)), ((0, 1), (1, 1)), ((1, 1), (0, 1)), ((0, 2), (0, 3)), ((0, 3), (0, 2)), ((1, 3), (2, 3)), ((2, 3), (1, 3)), ((2, 2), (3, 2)), ((3, 2), (2, 2)), ((2, 3), (3, 3)), ((3, 3), (2, 3))]",5,4,0.4819,3,14,0
01,1,48,16,1,5,"[((2, 2), (3, 2)), ((3, 2), (2, 2)), ((1, 2), (2, 2)), ((2, 2), (1, 2)), ((2, 3), (3, 3)), ((3, 3), (2, 3)), ((0, 2), (1, 2)), ((1, 2), (0, 2)), ((0, 0), (0, 1)), ((0, 1), (0, 0)), ((0, 1), (0, 2)), ((0, 2), (0, 1)), ((1, 1), (1, 2)), ((1, 2), (1, 1)), ((3, 0), (3, 1)), ((3, 1), (3, 0)), ((0, 3), (1, 3)), ((1, 3), (0, 3)), ((0, 1), (1, 1)), ((1, 1), (0, 1)), ((2, 1), (3, 1)), ((3, 1), (2, 1)), ((1, 3), (2, 3)), ((2, 3), (1, 3)), ((2, 0), (3, 0)), ((3, 0), (2, 0)), ((1, 0), (1, 1)), ((1, 1), (1, 0)), ((2, 1), (2, 2)), ((2, 2), (2, 1)), ((3, 2), (3, 3)), ((3, 3), (3, 2))]",2,2,0.2112,15,2,1
01,1,49,17,2,5,"[((2, 2), (2, 3)), ((2, 3), (2, 2)), ((1, 2), (2, 2)), ((2, 2), (1, 2)), ((1, 2), (1, 3)), ((1, 3), (1, 2)), ((3, 0), (3, 1)), ((3, 1), (3, 0)), ((2, 1), (3, 1)), ((3, 1), (2, 1)), ((0, 2), (0, 3)), ((0, 3), (0, 2)), ((0, 1), (0, 2)), ((0, 2), (0, 1)), ((3, 1), (3, 2)), ((3, 2), (3, 1)), ((0, 3), (1, 3)), ((1, 3), (0, 3)), ((1, 3), (2, 3)), ((2, 3), (1, 3)), ((0, 0), (0, 1)), ((0, 1), (0, 0)), ((2, 2), (3, 2)), ((3, 2), (2, 2)), ((0, 1), (1, 1)), ((1, 1), (0, 1)), ((2, 3), (3, 3)), ((3, 3), (2, 3)), ((1, 0), (2, 0)), ((2, 0), (1, 0)), ((1, 0), (1, 1)), ((1, 1), (1, 0)), ((0, 2), (1, 2)), ((1, 2), (0, 2))]",4,4,0.815,14,3,1
01,1,50,18,3,5,"[((2, 1), (3, 1)), ((3, 1), (2, 1)), ((0, 3), (1, 3)), ((1, 3), (0, 3)), ((1, 2), (2, 2)), ((2, 2), (1, 2)), ((2, 0), (2, 1)), ((2, 1), (2, 0)), ((2, 3), (3, 3)), ((3, 3), (2, 3)), ((1, 0), (1, 1)), ((1, 1), (1, 0)), ((0, 1), (0, 2)), ((0, 2), (0, 1)), ((0, 2), (1, 2)), ((1, 2), (0, 2)), ((0, 0), (0, 1)), ((0, 1), (0, 0)), ((1, 1), (2, 1)), ((2, 1), (1, 1)), ((1, 3), (2, 3)), ((2, 3), (1, 3)), ((3, 2), (3, 3)), ((3, 3), (3, 2)), ((1, 1), (1, 2)), ((1, 2), (1, 1)), ((2, 1), (2, 2)), ((2, 2), (2, 1)), ((3, 1), (3, 2)), ((3, 2), (3, 1)), ((0, 2), (0, 3)), ((0, 3), (0, 2)), ((2, 0), (3, 0)), ((3, 0), (2, 0)), ((3, 0), (3, 1)), ((3, 1), (3, 0))]",5,4,0.9805,2,15,0
01,1,51,18,3,5,"[((2, 2), (3, 2)), ((3, 2), (2, 2)), ((2, 1), (3, 1)), ((3, 1), (2, 1)), ((1, 3), (2, 3)), ((2, 3), (1, 3)), ((3, 2), (3, 3)), ((3, 3), (3, 2)), ((2, 0), (3, 0)), ((3, 0), (2, 0)), ((2, 2), (2, 3)), ((2, 3), (2, 2)), ((0, 1), (0, 2)), ((0, 2), (0, 1)), ((0, 0), (0, 1)), ((0, 1), (0, 0)), ((3, 1), (3, 2)), ((3, 2), (3, 1)), ((0, 2), (1, 2)), ((1, 2), (0, 2)), ((0, 1), (1, 1)), ((1, 1), (0, 1)), ((1, 0), (2, 0)), ((2, 0), (1, 0)), ((3, 0), (3, 1)), ((3, 1), (3, 0)), ((2, 3), (3, 3)), ((3, 3), (2, 3)), ((2, 0), (2, 1)), ((2, 1), (2, 0)), ((1, 2), (2, 2)), ((2, 2), (1, 2)), ((0, 0), (1, 0)), ((1, 0), (0, 0)), ((0, 3), (1, 3)), ((1, 3), (0, 3))]",6,5,0.8146,8,9,0
01,1,52,18,3,5,"[((1, 0), (2, 0)), ((2, 0), (1, 0)), ((1, 2), (2, 2)), ((2, 2), (1, 2)), ((3, 0), (3, 1)), ((3, 1), (3, 0)), ((1, 1), (2, 1)), ((2, 1), (1, 1)), ((0, 3), (1, 3)), ((1, 3), (0, 3)), ((2, 0), (2, 1)), ((2, 1), (2, 0)), ((2, 1), (3, 1)), ((3, 1), (2, 1)), ((1, 2), (1, 3)), ((1, 3), (1, 2)), ((0, 1), (0, 2)), ((0, 2), (0, 1)), ((0, 1), (1, 1)), ((1, 1), (0, 1)), ((2, 2), (3, 2)), ((3, 2), (2, 2)), ((1, 3), (2, 3)), ((2, 3), (1, 3)), ((1, 1), (1, 2)), ((1, 2), (1, 1)), ((0, 0), (0, 1)), ((0, 1), (0, 0)), ((2, 2), (2, 3)), ((2, 3), (2, 2)), ((1, 0), (1, 1)), ((1, 1), (1, 0)), ((2, 3), (3, 3)), ((3, 3), (2, 3)), ((2, 0), (3, 0)), ((3, 0), (2, 0))]",6,3,0.4468,8,9,0
01,1,53,16,1,5,"[((3, 0), (3, 1)), ((3, 1), (3, 0)), ((0, 0), (1, 0)), ((1, 0), (0, 0)), ((1, 0), (2, 0)), ((2, 0), (1, 0)), ((2, 0), (2, 1)), ((2, 1), (2, 0)), ((2, 3), (3, 3)), ((3, 3), (2, 3)), ((0, 1), (0, 2)), ((0, 2), (0, 1)), ((0, 3), (1, 3)), ((1, 3), (0, 3)), ((2, 0), (3, 0)), ((3, 0), (2, 0)), ((1, 0), (1, 1)), ((1, 1), (1, 0)), ((2, 1), (3, 1)), ((3, 1), (2, 1)), ((1, 3), (2, 3)), ((2, 3), (1, 3)), ((2, 2), (3, 2)), ((3, 2), (2, 2)), ((2, 1), (2, 2)), ((2, 2), (2, 1)), ((0, 2), (0, 3)), ((0, 3), (0, 2)), ((2, 2), (2, 3)), ((2, 3), (2, 2)), ((1, 1), (1, 2)), ((1, 2), (1, 1))]",1,1,0.1981,2,15,1
01,1,54,17,2,5,"[((3, 0), (3, 1)), ((3, 1), (3, 0)), ((0, 0), (0, 1)), ((0, 1), (0, 0)), ((1, 0), (1, 1)), ((1, 1), (1, 0)), ((1, 2), (2, 2)), ((2, 2), (1, 2)), ((1, 2), (1, 3)), ((1, 3), (1, 2)), ((3, 2), (3, 3)), ((3, 3), (3, 2)), ((2, 2), (2, 3)), ((2, 3), (2, 2)), ((0, 2), (1, 2)), ((1, 2), (0, 2)), ((1, 1), (2, 1)), ((2, 1), (1, 1)), ((3, 1), (3, 2)), ((3, 2), (3, 1)), ((2, 2), (3, 2)), ((3, 2), (2, 2)), ((1, 3), (2, 3)), ((2, 3), (1, 3)), ((2, 1), (3, 1)), ((3, 1), (2, 1)), ((1, 0), (2, 0)), ((2, 0), (1, 0)), ((0, 3), (1, 3)), ((1, 3), (0, 3)), ((0, 1), (1, 1)), ((1, 1), (0, 1)), ((1, 1), (1, 2)), ((1, 2), (1, 1))]",3,3,1.5969,15,2,1
01,2,1,17,2,3,"[((2, 1), (2, 2)), ((2, 2), (2, 1)), ((3, 2), (3, 3)), ((3, 3), (3, 2)), ((2, 3), (3, 3)), ((3, 3), (2, 3)), ((1, 1), (1, 2)), ((1, 2), (1, 1)), ((0, 0), (1, 0)), ((1, 0), (0, 0)), ((1, 2), (2, 2)), ((2, 2), (1, 2)), ((1, 1), (2, 1)), ((2, 1), (1, 1)), ((1, 3), (2, 3)), ((2, 3), (1, 3)), ((0, 0), (0, 1)), ((0, 1), (0, 0)), ((2, 0), (3, 0)), ((3, 0), (2, 0)), ((1, 2), (1, 3)), ((1, 3), (1, 2)), ((0, 1), (0, 2)), ((0, 2), (0, 1)), ((3, 0), (3, 1)), ((3, 1), (3, 0)), ((0, 1), (1, 1)), ((1, 1), (0, 1)), ((1, 0), (2, 0)), ((2, 0), (1, 0)), ((0, 2), (0, 3)), ((0, 3), (0, 2)), ((3, 1), (3, 2)), ((3, 2), (3, 1))]",3,4,0.747,12,5,0
01,2,2,18,3,3,"[((2, 2), (2, 3)), ((2, 3), (2, 2)), ((2, 0), (3, 0)), ((3, 0), (2, 0)), ((0, 0), (1, 0)), ((1, 0), (0, 0)), ((3, 1), (3, 2)), ((3, 2), (3, 1)), ((3, 2), (3, 3)), ((3, 3), (3, 2)), ((1, 2), (2, 2)), ((2, 2), (1, 2)), ((2, 3), (3, 3)), ((3, 3), (2, 3)), ((0, 2), (0, 3)), ((0, 3), (0, 2)), ((2, 2), (3, 2)), ((3, 2), (2, 2)), ((1, 3), (2, 3)), ((2, 3), (1, 3)), ((0, 1), (1, 1)), ((1, 1), (0, 1)), ((3, 0), (3, 1)), ((3, 1), (3, 0)), ((1, 1), (1, 2)), ((1, 2), (1, 1)), ((1, 0), (1, 1)), ((1, 1), (1, 0)), ((0, 0), (0, 1)), ((0, 1), (0, 0)), ((2, 1), (2, 2)), ((2, 2), (2, 1)), ((2, 0), (2, 1)), ((2, 1), (2, 0)), ((0, 2), (1, 2)), ((1, 2), (0, 2))]",5,5,2.965,3,14,1
01,2,3,17,2,3,"[((1, 2), (2, 2)), ((2, 2), (1, 2)), ((2, 3), (3, 3)), ((3, 3), (2, 3)), ((1, 3), (2, 3)), ((2, 3), (1, 3)), ((3, 1), (3, 2)), ((3, 2), (3, 1)), ((0, 2), (1, 2)), ((1, 2), (0, 2)), ((0, 0), (1, 0)), ((1, 0), (0, 0)), ((2, 2), (3, 2)), ((3, 2), (2, 2)), ((1, 2), (1, 3)), ((1, 3), (1, 2)), ((2, 0), (2, 1)), ((2, 1), (2, 0)), ((2, 0), (3, 0)), ((3, 0), (2, 0)), ((0, 1), (1, 1)), ((1, 1), (0, 1)), ((1, 1), (1, 2)), ((1, 2), (1, 1)), ((2, 1), (2, 2)), ((2, 2), (2, 1)), ((0, 3), (1, 3)), ((1, 3), (0, 3)), ((2, 1), (3, 1)), ((3, 1), (2, 1)), ((2, 2), (2, 3)), ((2, 3), (2, 2)), ((1, 0), (1, 1)), ((1, 1), (1, 0))]",4,2,3.4473,15,2,0
01,2,4,17,2,3,"[((1, 1), (2, 1)), ((2, 1), (1, 1)), ((2, 1), (3, 1)), ((3, 1), (2, 1)), ((0, 2), (1, 2)), ((1, 2), (0, 2)), ((1, 0), (1, 1)), ((1, 1), (1, 0)), ((1, 2), (1, 3)), ((1, 3), (1, 2)), ((1, 1), (1, 2)), ((1, 2), (1, 1)), ((0, 0), (0, 1)), ((0, 1), (0, 0)), ((0, 1), (1, 1)), ((1, 1), (0, 1)), ((1, 2), (2, 2)), ((2, 2), (1, 2)), ((1, 0), (2, 0)), ((2, 0), (1, 0)), ((2, 0), (3, 0)), ((3, 0), (2, 0)), ((1, 3), (2, 3)), ((2, 3), (1, 3)), ((0, 2), (0, 3)), ((0, 3), (0, 2)), ((0, 0), (1, 0)), ((1, 0), (0, 0)), ((3, 2), (3, 3)), ((3, 3), (3, 2)), ((2, 2), (3, 2)), ((3, 2), (2, 2)), ((0, 3), (1, 3)), ((1, 3), (0, 3))]",6,3,1.1812,3,14,0
01,2,5,17,2,3,"[((1, 0), (2, 0)), ((2, 0), (1, 0)), ((0, 2), (1, 2)), ((1, 2), (0, 2)), ((2, 1), (3, 1)), ((3, 1), (2, 1)), ((3, 0), (3, 1)), ((3, 1), (3, 0)), ((2, 3), (3, 3)), ((3, 3), (2, 3)), ((0, 3), (1, 3)), ((1, 3), (0, 3)), ((1, 1), (2, 1)), ((2, 1), (1, 1)), ((0, 2), (0, 3)), ((0, 3), (0, 2)), ((1, 2), (1, 3)), ((1, 3), (1, 2)), ((2, 1), (2, 2)), ((2, 2), (2, 1)), ((2, 0), (3, 0)), ((3, 0), (2, 0)), ((3, 2), (3, 3)), ((3, 3), (3, 2)), ((1, 1), (1, 2)), ((1, 2), (1, 1)), ((0, 1), (1, 1)), ((1, 1), (0, 1)), ((1, 3), (2, 3)), ((2, 3), (1, 3)), ((0, 0), (1, 0)), ((1, 0), (0, 0)), ((2, 2), (3, 2)), ((3, 2), (2, 2))]",3,3,3.8972,2,15,1
01,2,6,19,4,3,"[((0, 2), (0, 3)), ((0, 3), (0, 2)), ((1, 2), (2, 2)), ((2, 2), (1, 2)), ((1, 0), (2, 0)), ((2, 0), (1, 0)), ((1, 3), (2, 3)), ((2, 3), (1, 3)), ((0, 1), (0, 2)), ((0, 2), (0, 1)), ((2, 2), (2, 3)), ((2, 3), (2, 2)), ((2, 0), (2, 1)), ((2, 1), (2, 0)), ((0, 0), (1, 0)), ((1, 0), (0, 0)), ((2, 0), (3, 0)), ((3, 0), (2, 0)), ((1, 2), (1, 3)), ((1, 3), (1, 2)), ((2, 3), (3, 3)), ((3, 3), (2, 3)), ((0, 0), (0, 1)), ((0, 1), (0, 0)), ((3, 1), (3, 2)), ((3, 2), (3, 1)), ((0, 1), (1, 1)), ((1, 1), (0, 1)), ((2, 1), (3, 1)), ((3, 1), (2, 1)), ((0, 3), (1, 3)), ((1, 3), (0, 3)), ((0, 2), (1, 2)), ((1, 2), (0, 2)), ((3, 0), (3, 1)), ((3, 1), (3, 0)), ((1, 1), (2, 1)), ((2, 1), (1, 1))]",4,4,2.5487,2,15,1
01,2,7,17,2,3,"[((1, 2), (2, 2)), ((2, 2), (1, 2)), ((1, 1), (2, 1)), ((2, 1), (1, 1)), ((2, 0), (2, 1)), ((2, 1), (2, 0)), ((1, 0), (1, 1)), ((1, 1), (1, 0)), ((2, 0), (3, 0)), ((3, 0), (2, 0)), ((3, 2), (3, 3)), ((3, 3), (3, 2)), ((0, 0), (1, 0)), ((1, 0), (0, 0)), ((0, 2), (1, 2)), ((1, 2), (0, 2)), ((0, 1), (1, 1)), ((1, 1), (0, 1)), ((0, 2), (0, 3)), ((0, 3), (0, 2)), ((1, 1), (1, 2)), ((1, 2), (1, 1)), ((3, 1), (3, 2)), ((3, 2), (3, 1)), ((1, 3), (2, 3)), ((2, 3), (1, 3)), ((0, 3), (1, 3)), ((1, 3), (0, 3)), ((1, 0), (2, 0)), ((2, 0), (1, 0)), ((2, 3), (3, 3)), ((3, 3), (2, 3)), ((1, 2), (1, 3)), ((1, 3), (1, 2))]",6,2,1.3127,15,2,0
01,2,8,17,2,3,"[((0, 2), (1, 2)), ((1, 2), (0, 2)), ((1, 2), (1, 3)), ((1, 3), (1, 2)), ((2, 0), (3, 0)), ((3, 0), (2, 0)), ((1, 0), (1, 1)), ((1, 1), (1, 0)), ((2, 1), (3, 1)), ((3, 1), (2, 1)), ((1, 0), (2, 0)), ((2, 0), (1, 0)), ((1, 1), (1, 2)), ((1, 2), (1, 1)), ((0, 3), (1, 3)), ((1, 3), (0, 3)), ((2, 3), (3, 3)), ((3, 3), (2, 3)), ((2, 2), (2, 3)), ((2, 3), (2, 2)), ((2, 1), (2, 2)), ((2, 2), (2, 1)), ((3, 0), (3, 1)), ((3, 1), (3, 0)), ((0, 0), (0, 1)), ((0, 1), (0, 0)), ((1, 1), (2, 1)), ((2, 1), (1, 1)), ((1, 3), (2, 3)), ((2, 3), (1, 3)), ((0, 1), (0, 2)), ((0, 2), (0, 1)), ((3, 2), (3, 3)), ((3, 3), (3, 2))]",4,4,1.6641,5,12,1
01,2,9,15,0,3,"[((1, 2), (2, 2)), ((2, 2), (1, 2)), ((0, 2), (1, 2)), ((1, 2), (0, 2)), ((0, 0), (1, 0)), ((1, 0), (0, 0)), ((0, 1), (1, 1)), ((1, 1), (0, 1)), ((1, 0), (2, 0)), ((2, 0), (1, 0)), ((2, 3), (3, 3)), ((3, 3), (2, 3)), ((0, 1), (0, 2)), ((0, 2), (0, 1)), ((3, 2), (3, 3)), ((3, 3), (3, 2)), ((2, 1), (3, 1)), ((3, 1), (2, 1)), ((0, 0), (0, 1)), ((0, 1), (0, 0)), ((3, 1), (3, 2)), ((3, 2), (3, 1)), ((2, 2), (2, 3)), ((2, 3), (2, 2)), ((0, 3), (1, 3)), ((1, 3), (0, 3)), ((1, 3), (2, 3)), ((2, 3), (1, 3)), ((3, 0), (3, 1)), ((3, 1), (3, 0))]",1,1,0.347,5,12,1
01,2,10,17,2,3,"[((1, 0), (2, 0)), ((2, 0), (1, 0)), ((2, 1), (2, 2)), ((2, 2), (2, 1)), ((0, 1), (1, 1)), ((1, 1), (0, 1)), ((1, 2), (2, 2)), ((2, 2), (1, 2)), ((0, 2), (1, 2)), ((1, 2), (0, 2)), ((3, 0), (3, 1)), ((3, 1), (3, 0)), ((0, 0), (1, 0)), ((1, 0), (0, 0)), ((3, 1), (3, 2)), ((3, 2), (3, 1)), ((1, 1), (1, 2)), ((1, 2), (1, 1)), ((0, 3), (1, 3)), ((1, 3), (0, 3)), ((2, 3), (3, 3)), ((3, 3), (2, 3)), ((0, 1), (0, 2)), ((0, 2), (0, 1)), ((2, 2), (3, 2)), ((3, 2), (2, 2)), ((1, 0), (1, 1)), ((1, 1), (1, 0)), ((2, 2), (2, 3)), ((2, 3), (2, 2)), ((1, 3), (2, 3)), ((2, 3), (1, 3)), ((2, 0), (3, 0)), ((3, 0), (2, 0))]",3,3,1.6136,9,8,1
01,2,11,16,1,3,"[((2, 2), (3, 2)), ((3, 2), (2, 2)), ((0, 0), (0, 1)), ((0, 1), (0, 0)), ((1, 1), (2, 1)), ((2, 1), (1, 1)), ((0, 1), (0, 2)), ((0, 2), (0, 1)), ((0, 1), (1, 1)), ((1, 1), (0, 1)), ((0, 3), (1, 3)), ((1, 3), (0, 3)), ((1, 2), (1, 3)), ((1, 3), (1, 2)), ((2, 0), (2, 1)), ((2, 1), (2, 0)), ((0, 2), (0, 3)), ((0, 3), (0, 2)), ((2, 1), (3, 1)), ((3, 1), (2, 1)), ((3, 2), (3, 3)), ((3, 3), (3, 2)), ((2, 2), (2, 3)), ((2, 3), (2, 2)), ((2, 0), (3, 0)), ((3, 0), (2, 0)), ((2, 3), (3, 3)), ((3, 3), (2, 3)), ((1, 3), (2, 3)), ((2, 3), (1, 3)), ((1, 0), (1, 1)), ((1, 1), (1, 0))]",1,1,0.43,3,14,1
01,2,12,18,3,3,"[((2, 2), (2, 3)), ((2, 3), (2, 2)), ((2, 0), (3, 0)), ((3, 0), (2, 0)), ((0, 0), (1, 0)), ((1, 0), (0, 0)), ((0, 1), (0, 2)), ((0, 2), (0, 1)), ((0, 0), (0, 1)), ((0, 1), (0, 0)), ((0, 2), (1, 2)), ((1, 2), (0, 2)), ((1, 3), (2, 3)), ((2, 3), (1, 3)), ((3, 2), (3, 3)), ((3, 3), (3, 2)), ((2, 0), (2, 1)), ((2, 1), (2, 0)), ((2, 1), (3, 1)), ((3, 1), (2, 1)), ((1, 0), (1, 1)), ((1, 1), (1, 0)), ((0, 3), (1, 3)), ((1, 3), (0, 3)), ((3, 1), (3, 2)), ((3, 2), (3, 1)), ((2, 1), (2, 2)), ((2, 2), (2, 1)), ((0, 2), (0, 3)), ((0, 3), (0, 2)), ((1, 2), (1, 3)), ((1, 3), (1, 2)), ((1, 0), (2, 0)), ((2, 0), (1, 0)), ((3, 0), (3, 1)), ((3, 1), (3, 0))]",6,4,1.6137,2,15,0
01,2,13,17,2,3,"[((0, 0), (0, 1)), ((0, 1), (0, 0)), ((0, 2), (0, 3)), ((0, 3), (0, 2)), ((2, 1), (3, 1)), ((3, 1), (2, 1)), ((2, 2), (3, 2)), ((3, 2), (2, 2)), ((0, 1), (0, 2)), ((0, 2), (0, 1)), ((1, 2), (2, 2)), ((2, 2), (1, 2)), ((2, 2), (2, 3)), ((2, 3), (2, 2)), ((1, 2), (1, 3)), ((1, 3), (1, 2)), ((1, 1), (1, 2)), ((1, 2), (1, 1)), ((3, 2), (3, 3)), ((3, 3), (3, 2)), ((1, 3), (2, 3)), ((2, 3), (1, 3)), ((2, 3), (3, 3)), ((3, 3), (2, 3)), ((3, 1), (3, 2)), ((3, 2), (3, 1)), ((3, 0), (3, 1)), ((3, 1), (3, 0)), ((0, 3), (1, 3)), ((1, 3), (0, 3)), ((2, 0), (2, 1)), ((2, 1), (2, 0)), ((1, 0), (2, 0)), ((2, 0), (1, 0))]",3,3,1.2793,5,12,1
01,2,14,16,1,3,"[((3, 2), (3, 3)), ((3, 3), (3, 2)), ((3, 0), (3, 1)), ((3, 1), (3, 0)), ((0, 2), (0, 3)), ((0, 3), (0, 2)), ((1, 1), (1, 2)), ((1, 2), (1, 1)), ((2, 2), (3, 2)), ((3, 2), (2, 2)), ((1, 0), (2, 0)), ((2, 0), (1, 0)), ((3, 1), (3, 2)), ((3, 2), (3, 1)), ((2, 0), (3, 0)), ((3, 0), (2, 0)), ((0, 3), (1, 3)), ((1, 3), (0, 3)), ((2, 3), (3, 3)), ((3, 3), (2, 3)), ((0, 2), (1, 2)), ((1, 2), (0, 2)), ((1, 1), (2, 1)), ((2, 1), (1, 1)), ((0, 0), (1, 0)), ((1, 0), (0, 0)), ((0, 1), (1, 1)), ((1, 1), (0, 1)), ((0, 0), (0, 1)), ((0, 1), (0, 0)), ((1, 2), (1, 3)), ((1, 3), (1, 2))]",2,2,0.381,14,3,1
01,2,15,17,2,3,"[((2, 2), (3, 2)), ((3, 2), (2, 2)), ((1, 0), (2, 0)), ((2, 0), (1, 0)), ((3, 0), (3, 1)), ((3, 1), (3, 0)), ((2, 0), (3, 0)), ((3, 0), (2, 0)), ((2, 0), (2, 1)), ((2, 1), (2, 0)), ((1, 3), (2, 3)), ((2, 3), (1, 3)), ((0, 0), (1, 0)), ((1, 0), (0, 0)), ((2, 2), (2, 3)), ((2, 3), (2, 2)), ((0, 2), (0, 3)), ((0, 3), (0, 2)), ((1, 0), (1, 1)), ((1, 1), (1, 0)), ((3, 1), (3, 2)), ((3, 2), (3, 1)), ((1, 2), (2, 2)), ((2, 2), (1, 2)), ((1, 1), (1, 2)), ((1, 2), (1, 1)), ((0, 2), (1, 2)), ((1, 2), (0, 2)), ((0, 1), (1, 1)), ((1, 1), (0, 1)), ((2, 3), (3, 3)), ((3, 3), (2, 3)), ((1, 1), (2, 1)), ((2, 1), (1, 1))]",5,3,1.6471,15,2,0
01,2,16,16,1,3,"[((2, 0), (3, 0)), ((3, 0), (2, 0)), ((3, 1), (3, 2)), ((3, 2), (3, 1)), ((2, 3), (3, 3)), ((3, 3), (2, 3)), ((1, 1), (1, 2)), ((1, 2), (1, 1)), ((0, 3), (1, 3)), ((1, 3), (0, 3)), ((3, 0), (3, 1)), ((3, 1), (3, 0)), ((1, 3), (2, 3)), ((2, 3), (1, 3)), ((1, 2), (2, 2)), ((2, 2), (1, 2)), ((0, 1), (0, 2)), ((0, 2), (0, 1)), ((1, 2), (1, 3)), ((1, 3), (1, 2)), ((0, 0), (0, 1)), ((0, 1), (0, 0)), ((0, 1), (1, 1)), ((1, 1), (0, 1)), ((3, 2), (3, 3)), ((3, 3), (3, 2)), ((1, 0), (1, 1)), ((1, 1), (1, 0)), ((2, 0), (2, 1)), ((2, 1), (2, 0)), ((0, 0), (1, 0)), ((1, 0), (0, 0))]",2,2,0.4803,5,12,1
01,2,17,15,0,3,"[((0, 1), (0, 2)), ((0, 2), (0, 1)), ((0, 0), (0, 1)), ((0, 1), (0, 0)), ((2, 1), (3, 1)), ((3, 1), (2, 1)), ((0, 2), (1, 2)), ((1, 2), (0, 2)), ((2, 0), (3, 0)), ((3, 0), (2, 0)), ((0, 1), (1, 1)), ((1, 1), (0, 1)), ((3, 2), (3, 3)), ((3, 3), (3, 2)), ((2, 2), (2, 3)), ((2, 3), (2, 2)), ((0, 2), (0, 3)), ((0, 3), (0, 2)), ((1, 2), (2, 2)), ((2, 2), (1, 2)), ((1, 0), (2, 0)), ((2, 0), (1, 0)), ((2, 3), (3, 3)), ((3, 3), (2, 3)), ((0, 3), (1, 3)), ((1, 3), (0, 3)), ((1, 0), (1, 1)), ((1, 1), (1, 0)), ((2, 0), (2, 1)), ((2, 1), (2, 0))]",1,1,0.1968,14,3,1
01,2,18,16,1,3,"[((0, 2), (0, 3)), ((0, 3), (0, 2)), ((1, 2), (1, 3)), ((1, 3), (1, 2)), ((2, 0), (3, 0)), ((3, 0), (2, 0)), ((2, 1), (3, 1)), ((3, 1), (2, 1)), ((1, 0), (2, 0)), ((2, 0), (1, 0)), ((2, 1), (2, 2)), ((2, 2), (2, 1)), ((3, 1), (3, 2)), ((3, 2), (3, 1)), ((0, 1), (0, 2)), ((0, 2), (0, 1)), ((1, 1), (1, 2)), ((1, 2), (1, 1)), ((0, 0), (1, 0)), ((1, 0), (0, 0)), ((2, 2), (2, 3)), ((2, 3), (2, 2)), ((3, 2), (3, 3)), ((3, 3), (3, 2)), ((2, 0), (2, 1)), ((2, 1), (2, 0)), ((0, 1), (1, 1)), ((1, 1), (0, 1)), ((2, 2), (3, 2)), ((3, 2), (2, 2)), ((1, 0), (1, 1)), ((1, 1), (1, 0))]",1,1,0.2482,8,9,1
01,2,19,17,2,3,"[((1, 0), (1, 1)), ((1, 1), (1, 0)), ((3, 1), (3, 2)), ((3, 2), (3, 1)), ((1, 1), (2, 1)), ((2, 1), (1, 1)), ((0, 0), (1, 0)), ((1, 0), (0, 0)), ((0, 1), (0, 2)), ((0, 2), (0, 1)), ((2, 3), (3, 3)), ((3, 3), (2, 3)), ((3, 0), (3, 1)), ((3, 1), (3, 0)), ((2, 0), (2, 1)), ((2, 1), (2, 0)), ((0, 1), (1, 1)), ((1, 1), (0, 1)), ((1, 2), (1, 3)), ((1, 3), (1, 2)), ((1, 0), (2, 0)), ((2, 0), (1, 0)), ((0, 2), (0, 3)), ((0, 3), (0, 2)), ((3, 2), (3, 3)), ((3, 3), (3, 2)), ((2, 2), (2, 3)), ((2, 3), (2, 2)), ((0, 3), (1, 3)), ((1, 3), (0, 3)), ((2, 1), (3, 1)), ((3, 1), (2, 1)), ((1, 1), (1, 2)), ((1, 2), (1, 1))]",4,3,1.5283,15,2,0
01,2,20,16,1,3,"[((1, 1), (1, 2)), ((1, 2), (1, 1)), ((2, 3), (3, 3)), ((3, 3), (2, 3)), ((1, 3), (2, 3)), ((2, 3), (1, 3)), ((1, 0), (1, 1)), ((1, 1), (1, 0)), ((2, 2), (2, 3)), ((2, 3), (2, 2)), ((2, 1), (3, 1)), ((3, 1), (2, 1)), ((3, 0), (3, 1)), ((3, 1), (3, 0)), ((2, 1), (2, 2)), ((2, 2), (2, 1)), ((3, 1), (3, 2)), ((3, 2), (3, 1)), ((0, 1), (0, 2)), ((0, 2), (0, 1)), ((2, 0), (3, 0)), ((3, 0), (2, 0)), ((0, 2), (0, 3)), ((0, 3), (0, 2)), ((1, 2), (1, 3)), ((1, 3), (1, 2)), ((1, 2), (2, 2)), ((2, 2), (1, 2)), ((0, 1), (1, 1)), ((1, 1), (0, 1)), ((0, 0), (1, 0)), ((1, 0), (0, 0))]",2,2,0.748,12,5,1
01,2,21,16,1,3,"[((0, 3), (1, 3)), ((1, 3), (0, 3)), ((1, 0), (1, 1)), ((1, 1), (1, 0)), ((2, 2), (2, 3)), ((2, 3), (2, 2)), ((2, 2), (3, 2)), ((3, 2), (2, 2)), ((1, 1), (1, 2)), ((1, 2), (1, 1)), ((3, 2), (3, 3)), ((3, 3), (3, 2)), ((1, 3), (2, 3)), ((2, 3), (1, 3)), ((2, 0), (2, 1)), ((2, 1), (2, 0)), ((0, 0), (1, 0)), ((1, 0), (0, 0)), ((2, 3), (3, 3)), ((3, 3), (2, 3)), ((1, 2), (1, 3)), ((1, 3), (1, 2)), ((2, 0), (3, 0)), ((3, 0), (2, 0)), ((0, 1), (1, 1)), ((1, 1), (0, 1)), ((3, 0), (3, 1)), ((3, 1), (3, 0)), ((1, 0), (2, 0)), ((2, 0), (1, 0)), ((0, 1), (0, 2)), ((0, 2), (0, 1))]",3,2,1.3802,12,5,0
01,2,22,18,3,3,"[((3, 2), (3, 3)), ((3, 3), (3, 2)), ((0, 0), (1, 0)), ((1, 0), (0, 0)), ((2, 1), (2, 2)), ((2, 2), (2, 1)), ((3, 0), (3, 1)), ((3, 1), (3, 0)), ((0, 1), (1, 1)), ((1, 1), (0, 1)), ((0, 1), (0, 2)), ((0, 2), (0, 1)), ((1, 1), (2, 1)), ((2, 1), (1, 1)), ((2, 2), (2, 3)), ((2, 3), (2, 2)), ((0, 3), (1, 3)), ((1, 3), (0, 3)), ((1, 2), (2, 2)), ((2, 2), (1, 2)), ((2, 0), (2, 1)), ((2, 1), (2, 0)), ((1, 3), (2, 3)), ((2, 3), (1, 3)), ((1, 1), (1, 2)), ((1, 2), (1, 1)), ((2, 0), (3, 0)), ((3, 0), (2, 0)), ((3, 1), (3, 2)), ((3, 2), (3, 1)), ((1, 0), (2, 0)), ((2, 0), (1, 0)), ((2, 3), (3, 3)), ((3, 3), (2, 3)), ((2, 2), (3, 2)), ((3, 2), (2, 2))]",6,3,2.5943,2,15,0
01,2,23,15,0,3,"[((0, 0), (1, 0)), ((1, 0), (0, 0)), ((2, 2), (2, 3)), ((2, 3), (2, 2)), ((0, 2), (0, 3)), ((0, 3), (0, 2)), ((2, 0), (2, 1)), ((2, 1), (2, 0)), ((3, 1), (3, 2)), ((3, 2), (3, 1)), ((1, 2), (1, 3)), ((1, 3), (1, 2)), ((2, 1), (2, 2)), ((2, 2), (2, 1)), ((2, 2), (3, 2)), ((3, 2), (2, 2)), ((3, 0), (3, 1)), ((3, 1), (3, 0)), ((1, 1), (1, 2)), ((1, 2), (1, 1)), ((3, 2), (3, 3)), ((3, 3), (3, 2)), ((0, 2), (1, 2)), ((1, 2), (0, 2)), ((1, 0), (1, 1)), ((1, 1), (1, 0)), ((1, 0), (2, 0)), ((2, 0), (1, 0)), ((0, 0), (0, 1)), ((0, 1), (0, 0))]",1,1,0.9968,5,12,1
01,2,24,17,2,3,"[((0, 1), (1, 1)), ((1, 1), (0, 1)), ((3, 2), (3, 3)), ((3, 3), (3, 2)), ((0, 0), (1, 0)), ((1, 0), (0, 0)), ((1, 2), (2, 2)), ((2, 2), (1, 2)), ((2, 2), (3, 2)), ((3, 2), (2, 2)), ((1, 0), (2, 0)), ((2, 0), (1, 0)), ((3, 0), (3, 1)), ((3, 1), (3, 0)), ((0, 2), (0, 3)), ((0, 3), (0, 2)), ((1, 3), (2, 3)), ((2, 3), (1, 3)), ((2, 1), (3, 1)), ((3, 1), (2, 1)), ((0, 1), (0, 2)), ((0, 2), (0, 1)), ((0, 2), (1, 2)), ((1, 2), (0, 2)), ((2, 0), (3, 0)), ((3, 0), (2, 0)), ((1, 2), (1, 3)), ((1, 3), (1, 2)), ((0, 0), (0, 1)), ((0, 1), (0, 0)), ((1, 0), (1, 1)), ((1, 1), (1, 0)), ((3, 1), (3, 2)), ((3, 2), (3, 1))]",3,3,1.497,9,8,1
01,2,25,17,2,3,"[((1, 0), (1, 1)), ((1, 1), (1, 0)), ((0, 3), (1, 3)), ((1, 3), (0, 3)), ((3, 2), (3, 3)), ((3, 3), (3, 2)), ((3, 1), (3, 2)), ((3, 2), (3, 1)), ((0, 1), (0, 2)), ((0, 2), (0, 1)), ((2, 0), (3, 0)), ((3, 0), (2, 0)), ((0, 2), (0, 3)), ((0, 3), (0, 2)), ((0, 0), (1, 0)), ((1, 0), (0, 0)), ((2, 2), (3, 2)), ((3, 2), (2, 2)), ((1, 1), (1, 2)), ((1, 2), (1, 1)), ((1, 3), (2, 3)), ((2, 3), (1, 3)), ((0, 2), (1, 2)), ((1, 2), (0, 2)), ((1, 1), (2, 1)), ((2, 1), (1, 1)), ((3, 0), (3, 1)), ((3, 1), (3, 0)), ((2, 3), (3, 3)), ((3, 3), (2, 3)), ((1, 2), (2, 2)), ((2, 2), (1, 2)), ((1, 2), (1, 3)), ((1, 3), (1, 2))]",5,3,1.8972,8,9,0
01,2,26,18,3,3,"[((0, 2), (0, 3)), ((0, 3), (0, 2)), ((2, 3), (3, 3)), ((3, 3), (2, 3)), ((0, 1), (0, 2)), ((0, 2), (0, 1)), ((3, 1), (3, 2)), ((3, 2), (3, 1)), ((2, 1), (3, 1)), ((3, 1), (2, 1)), ((1, 1), (2, 1)), ((2, 1), (1, 1)), ((2, 0), (3, 0)), ((3, 0), (2, 0)), ((1, 0), (2, 0)), ((2, 0), (1, 0)), ((2, 2), (3, 2)), ((3, 2), (2, 2)), ((2, 2), (2, 3)), ((2, 3), (2, 2)), ((2, 1), (2, 2)), ((2, 2), (2, 1)), ((3, 2), (3, 3)), ((3, 3), (3, 2)), ((1, 0), (1, 1)), ((1, 1), (1, 0)), ((1, 1), (1, 2)), ((1, 2), (1, 1)), ((2, 0), (2, 1)), ((2, 1), (2, 0)), ((0, 3), (1, 3)), ((1, 3), (0, 3)), ((0, 0), (0, 1)), ((0, 1), (0, 0)), ((0, 2), (1, 2)), ((1, 2), (0, 2))]",6,3,2.2152,8,9,0
01,2,27,18,3,3,"[((2, 2), (2, 3)), ((2, 3), (2, 2)), ((3, 2), (3, 3)), ((3, 3), (3, 2)), ((0, 0), (0, 1)), ((0, 1), (0, 0)), ((3, 0), (3, 1)), ((3, 1), (3, 0)), ((0, 0), (1, 0)), ((1, 0), (0, 0)), ((0, 2), (0, 3)), ((0, 3), (0, 2)), ((1, 1), (1, 2)), ((1, 2), (1, 1)), ((1, 2), (1, 3)), ((1, 3), (1, 2)), ((3, 1), (3, 2)), ((3, 2), (3, 1)), ((1, 2), (2, 2)), ((2, 2), (1, 2)), ((2, 1), (2, 2)), ((2, 2), (2, 1)), ((0, 3), (1, 3)), ((1, 3), (0, 3)), ((2, 3), (3, 3)), ((3, 3), (2, 3)), ((1, 0), (2, 0)), ((2, 0), (1, 0)), ((0, 2), (1, 2)), ((1, 2), (0, 2)), ((1, 1), (2, 1)), ((2, 1), (1, 1)), ((2, 1), (3, 1)), ((3, 1), (2, 1)), ((2, 0), (3, 0)), ((3, 0), (2, 0))]",5,4,3.1135,12,5,0
01,2,28,17,2,3,"[((3, 2), (3, 3)), ((3, 3), (3, 2)), ((1, 2), (2, 2)), ((2, 2), (1, 2)), ((1, 3), (2, 3)), ((2, 3), (1, 3)), ((3, 1), (3, 2)), ((3, 2), (3, 1)), ((3, 0), (3, 1)), ((3, 1), (3, 0)), ((1, 0), (1, 1)), ((1, 1), (1, 0)), ((0, 3), (1, 3)), ((1, 3), (0, 3)), ((1, 1), (2, 1)), ((2, 1), (1, 1)), ((2, 0), (3, 0)), ((3, 0), (2, 0)), ((1, 1), (1, 2)), ((1, 2), (1, 1)), ((2, 1), (2, 2)), ((2, 2), (2, 1)), ((2, 2), (2, 3)), ((2, 3), (2, 2)), ((0, 2), (0, 3)), ((0, 3), (0, 2)), ((0, 0), (1, 0)), ((1, 0), (0, 0)), ((0, 1), (0, 2)), ((0, 2), (0, 1)), ((2, 3), (3, 3)), ((3, 3), (2, 3)), ((0, 2), (1, 2)), ((1, 2), (0, 2))]",3,3,3.4969,3,14,1
01,2,29,16,1,3,"[((2, 0), (2, 1)), ((2, 1), (2, 0)), ((1, 0), (2, 0)), ((2, 0), (1, 0)), ((0, 0), (1, 0)), ((1, 0), (0, 0)), ((2, 3), (3, 3)), ((3, 3), (2, 3)), ((1, 0), (1, 1)), ((1, 1), (1, 0)), ((3, 1), (3, 2)), ((3, 2), (3, 1)), ((0, 3), (1, 3)), ((1, 3), (0, 3)), ((2, 1), (3, 1)), ((3, 1), (2, 1)), ((0, 0), (0, 1)), ((0, 1), (0, 0)), ((2, 2), (2, 3)), ((2, 3), (2, 2)), ((2, 0), (3, 0)), ((3, 0), (2, 0)), ((0, 2), (0, 3)), ((0, 3), (0, 2)), ((2, 1), (2, 2)), ((2, 2), (2, 1)), ((1, 1), (1, 2)), ((1, 2), (1, 1)), ((1, 3), (2, 3)), ((2, 3), (1, 3)), ((3, 2), (3, 3)), ((3, 3), (3, 2))]",2,2,0.9306,9,8,1
01,2,30,17,2,3,"[((2, 1), (3, 1)), ((3, 1), (2, 1)), ((2, 1), (2, 2)), ((2, 2), (2, 1)), ((2, 0), (3, 0)), ((3, 0), (2, 0)), ((0, 0), (1, 0)), ((1, 0), (0, 0)), ((1, 3), (2, 3)), ((2, 3), (1, 3)), ((0, 1), (1, 1)), ((1, 1), (0, 1)), ((1, 0), (1, 1)), ((1, 1), (1, 0)), ((1, 2), (1, 3)), ((1, 3), (1, 2)), ((1, 1), (1, 2)), ((1, 2), (1, 1)), ((2, 2), (2, 3)), ((2, 3), (2, 2)), ((3, 2), (3, 3)), ((3, 3), (3, 2)), ((0, 2), (1, 2)), ((1, 2), (0, 2)), ((0, 3), (1, 3)), ((1, 3), (0, 3)), ((2, 3), (3, 3)), ((3, 3), (2, 3)), ((0, 1), (0, 2)), ((0, 2), (0, 1)), ((3, 0), (3, 1)), ((3, 1), (3, 0)), ((0, 0), (0, 1)), ((0, 1), (0, 0))]",1,1,0.6148,8,9,1
01,2,31,16,1,3,"[((3, 2), (3, 3)), ((3, 3), (3, 2)), ((2, 2), (3, 2)), ((3, 2), (2, 2)), ((2, 1), (2, 2)), ((2, 2), (2, 1)), ((1, 0), (2, 0)), ((2, 0), (1, 0)), ((0, 2), (1, 2)), ((1, 2), (0, 2)), ((0, 0), (1, 0)), ((1, 0), (0, 0)), ((2, 0), (2, 1)), ((2, 1), (2, 0)), ((3, 1), (3, 2)), ((3, 2), (3, 1)), ((3, 0), (3, 1)), ((3, 1), (3, 0)), ((0, 3), (1, 3)), ((1, 3), (0, 3)), ((0, 1), (0, 2)), ((0, 2), (0, 1)), ((0, 1), (1, 1)), ((1, 1), (0, 1)), ((0, 2), (0, 3)), ((0, 3), (0, 2)), ((2, 1), (3, 1)), ((3, 1), (2, 1)), ((1, 2), (2, 2)), ((2, 2), (1, 2)), ((1, 3), (2, 3)), ((2, 3), (1, 3))]",2,2,0.7634,3,14,1
01,2,32,18,3,3,"[((3, 0), (3, 1)), ((3, 1), (3, 0)), ((1, 2), (2, 2)), ((2, 2), (1, 2)), ((0, 1), (1, 1)), ((1, 1), (0, 1)), ((1, 0), (1, 1)), ((1, 1), (1, 0)), ((2, 3), (3, 3)), ((3, 3), (2, 3)), ((2, 1), (3, 1)), ((3, 1), (2, 1)), ((3, 1), (3, 2)), ((3, 2), (3, 1)), ((0, 0), (1, 0)), ((1, 0), (0, 0)), ((2, 1), (2, 2)), ((2, 2), (2, 1)), ((2, 2), (2, 3)), ((2, 3), (2, 2)), ((2, 2), (3, 2)), ((3, 2), (2, 2)), ((2, 0), (2, 1)), ((2, 1), (2, 0)), ((0, 2), (1, 2)), ((1, 2), (0, 2)), ((1, 0), (2, 0)), ((2, 0), (1, 0)), ((1, 2), (1, 3)), ((1, 3), (1, 2)), ((3, 2), (3, 3)), ((3, 3), (3, 2)), ((0, 3), (1, 3)), ((1, 3), (0, 3)), ((0, 2), (0, 3)), ((0, 3), (0, 2))]",5,3,2.1313,15,2,0
01,2,33,16,1,3,"[((2, 0), (2, 1)), ((2, 1), (2, 0)), ((2, 2), (3, 2)), ((3, 2), (2, 2)), ((0, 1), (1, 1)), ((1, 1), (0, 1)), ((2, 3), (3, 3)), ((3, 3), (2, 3)), ((1, 0), (2, 0)), ((2, 0), (1, 0)), ((0, 3), (1, 3)), ((1, 3), (0, 3)), ((2, 1), (2, 2)), ((2, 2), (2, 1)), ((0, 0), (0, 1)), ((0, 1), (0, 0)), ((1, 1), (1, 2)), ((1, 2), (1, 1)), ((2, 0), (3, 0)), ((3, 0), (2, 0)), ((1, 2), (2, 2)), ((2, 2), (1, 2)), ((0, 1), (0, 2)), ((0, 2), (0, 1)), ((2, 1), (3, 1)), ((3, 1), (2, 1)), ((2, 2), (2, 3)), ((2, 3), (2, 2)), ((1, 3), (2, 3)), ((2, 3), (1, 3)), ((3, 0), (3, 1)), ((3, 1), (3, 0))]",2,2,0.7633,3,14,1
01,2,34,18,3,3,"[((3, 1), (3, 2)), ((3, 2), (3, 1)), ((2, 2), (3, 2)), ((3, 2), (2, 2)), ((1, 3), (2, 3)), ((2, 3), (1, 3)), ((0, 1), (0, 2)), ((0, 2), (0, 1)), ((2, 0), (2, 1)), ((2, 1), (2, 0)), ((3, 0), (3, 1)), ((3, 1), (3, 0)), ((1, 2), (2, 2)), ((2, 2), (1, 2)), ((0, 2), (0, 3)), ((0, 3), (0, 2)), ((0, 3), (1, 3)), ((1, 3), (0, 3)), ((0, 2), (1, 2)), ((1, 2), (0, 2)), ((1, 1), (1, 2)), ((1, 2), (1, 1)), ((0, 0), (0, 1)), ((0, 1), (0, 0)), ((2, 3), (3, 3)), ((3, 3), (2, 3)), ((2, 2), (2, 3)), ((2, 3), (2, 2)), ((0, 0), (1, 0)), ((1, 0), (0, 0)), ((3, 2), (3, 3)), ((3, 3), (3, 2)), ((1, 0), (2, 0)), ((2, 0), (1, 0)), ((2, 0), (3, 0)), ((3, 0), (2, 0))]",5,4,1.5467,14,3,0
01,2,35,17,2,3,"[((0, 0), (1, 0)), ((1, 0), (0, 0)), ((0, 2), (1, 2)), ((1, 2), (0, 2)), ((3, 0), (3, 1)), ((3, 1), (3, 0)), ((0, 3), (1, 3)), ((1, 3), (0, 3)), ((1, 1), (2, 1)), ((2, 1), (1, 1)), ((2, 2), (2, 3)), ((2, 3), (2, 2)), ((1, 3), (2, 3)), ((2, 3), (1, 3)), ((3, 1), (3, 2)), ((3, 2), (3, 1)), ((0, 2), (0, 3)), ((0, 3), (0, 2)), ((0, 1), (0, 2)), ((0, 2), (0, 1)), ((2, 3), (3, 3)), ((3, 3), (2, 3)), ((1, 0), (1, 1)), ((1, 1), (1, 0)), ((2, 0), (2, 1)), ((2, 1), (2, 0)), ((1, 1), (1, 2)), ((1, 2), (1, 1)), ((2, 1), (2, 2)), ((2, 2), (2, 1)), ((3, 2), (3, 3)), ((3, 3), (3, 2)), ((2, 2), (3, 2)), ((3, 2), (2, 2))]",4,5,2.297,14,3,0
01,2,36,18,3,3,"[((0, 0), (1, 0)), ((1, 0), (0, 0)), ((0, 1), (1, 1)), ((1, 1), (0, 1)), ((2, 2), (2, 3)), ((2, 3), (2, 2)), ((3, 1), (3, 2)), ((3, 2), (3, 1)), ((1, 2), (2, 2)), ((2, 2), (1, 2)), ((1, 0), (2, 0)), ((2, 0), (1, 0)), ((2, 3), (3, 3)), ((3, 3), (2, 3)), ((2, 0), (2, 1)), ((2, 1), (2, 0)), ((2, 1), (3, 1)), ((3, 1), (2, 1)), ((2, 0), (3, 0)), ((3, 0), (2, 0)), ((3, 0), (3, 1)), ((3, 1), (3, 0)), ((1, 1), (1, 2)), ((1, 2), (1, 1)), ((0, 3), (1, 3)), ((1, 3), (0, 3)), ((0, 2), (1, 2)), ((1, 2), (0, 2)), ((2, 1), (2, 2)), ((2, 2), (2, 1)), ((0, 2), (0, 3)), ((0, 3), (0, 2)), ((3, 2), (3, 3)), ((3, 3), (3, 2)), ((0, 0), (0, 1)), ((0, 1), (0, 0))]",5,4,2.714,8,9,0
01,2,37,16,1,3,"[((2, 3), (3, 3)), ((3, 3), (2, 3)), ((1, 1), (1, 2)), ((1, 2), (1, 1)), ((0, 1), (0, 2)), ((0, 2), (0, 1)), ((1, 3), (2, 3)), ((2, 3), (1, 3)), ((2, 1), (2, 2)), ((2, 2), (2, 1)), ((3, 0), (3, 1)), ((3, 1), (3, 0)), ((3, 2), (3, 3)), ((3, 3), (3, 2)), ((0, 0), (1, 0)), ((1, 0), (0, 0)), ((2, 2), (2, 3)), ((2, 3), (2, 2)), ((1, 2), (2, 2)), ((2, 2), (1, 2)), ((0, 2), (0, 3)), ((0, 3), (0, 2)), ((2, 0), (2, 1)), ((2, 1), (2, 0)), ((2, 0), (3, 0)), ((3, 0), (2, 0)), ((1, 0), (1, 1)), ((1, 1), (1, 0)), ((0, 0), (0, 1)), ((0, 1), (0, 0)), ((2, 2), (3, 2)), ((3, 2), (2, 2))]",3,2,1.0465,3,14,0
01,2,38,16,1,3,"[((1, 2), (2, 2)), ((2, 2), (1, 2)), ((1, 3), (2, 3)), ((2, 3), (1, 3)), ((0, 0), (1, 0)), ((1, 0), (0, 0)), ((1, 0), (2, 0)), ((2, 0), (1, 0)), ((2, 2), (3, 2)), ((3, 2), (2, 2)), ((1, 2), (1, 3)), ((1, 3), (1, 2)), ((2, 1), (3, 1)), ((3, 1), (2, 1)), ((3, 0), (3, 1)), ((3, 1), (3, 0)), ((0, 0), (0, 1)), ((0, 1), (0, 0)), ((1, 1), (2, 1)), ((2, 1), (1, 1)), ((2, 0), (2, 1)), ((2, 1), (2, 0)), ((0, 2), (1, 2)), ((1, 2), (0, 2)), ((2, 1), (2, 2)), ((2, 2), (2, 1)), ((0, 3), (1, 3)), ((1, 3), (0, 3)), ((1, 0), (1, 1)), ((1, 1), (1, 0)), ((3, 2), (3, 3)), ((3, 3), (3, 2))]",2,2,1.9805,15,2,1
01,2,39,17,2,3,"[((0, 1), (1, 1)), ((1, 1), (0, 1)), ((1, 1), (1, 2)), ((1, 2), (1, 1)), ((0, 1), (0, 2)), ((0, 2), (0, 1)), ((2, 0), (2, 1)), ((2, 1), (2, 0)), ((2, 2), (2, 3)), ((2, 3), (2, 2)), ((1, 3), (2, 3)), ((2, 3), (1, 3)), ((0, 0), (1, 0)), ((1, 0), (0, 0)), ((3, 1), (3, 2)), ((3, 2), (3, 1)), ((0, 3), (1, 3)), ((1, 3), (0, 3)), ((0, 0), (0, 1)), ((0, 1), (0, 0)), ((1, 2), (1, 3)), ((1, 3), (1, 2)), ((2, 1), (2, 2)), ((2, 2), (2, 1)), ((2, 0), (3, 0)), ((3, 0), (2, 0)), ((1, 2), (2, 2)), ((2, 2), (1, 2)), ((2, 3), (3, 3)), ((3, 3), (2, 3)), ((0, 2), (0, 3)), ((0, 3), (0, 2)), ((3, 0), (3, 1)), ((3, 1), (3, 0))]",4,4,1.6965,5,12,1
01,2,40,15,0,3,"[((1, 2), (2, 2)), ((2, 2), (1, 2)), ((0, 2), (0, 3)), ((0, 3), (0, 2)), ((1, 3), (2, 3)), ((2, 3), (1, 3)), ((3, 0), (3, 1)), ((3, 1), (3, 0)), ((0, 1), (0, 2)), ((0, 2), (0, 1)), ((0, 1), (1, 1)), ((1, 1), (0, 1)), ((1, 1), (1, 2)), ((1, 2), (1, 1)), ((2, 2), (3, 2)), ((3, 2), (2, 2)), ((2, 0), (2, 1)), ((2, 1), (2, 0)), ((1, 1), (2, 1)), ((2, 1), (1, 1)), ((2, 3), (3, 3)), ((3, 3), (2, 3)), ((0, 0), (1, 0)), ((1, 0), (0, 0)), ((2, 0), (3, 0)), ((3, 0), (2, 0)), ((1, 2), (1, 3)), ((1, 3), (1, 2)), ((0, 0), (0, 1)), ((0, 1), (0, 0))]",1,1,0.2468,14,3,1
01,2,41,17,2,3,"[((2, 0), (3, 0)), ((3, 0), (2, 0)), ((0, 0), (1, 0)), ((1, 0), (0, 0)), ((2, 2), (3, 2)), ((3, 2), (2, 2)), ((2, 3), (3, 3)), ((3, 3), (2, 3)), ((1, 0), (2, 0)), ((2, 0), (1, 0)), ((2, 2), (2, 3)), ((2, 3), (2, 2)), ((3, 2), (3, 3)), ((3, 3), (3, 2)), ((0, 1), (0, 2)), ((0, 2), (0, 1)), ((0, 3), (1, 3)), ((1, 3), (0, 3)), ((2, 1), (3, 1)), ((3, 1), (2, 1)), ((0, 0), (0, 1)), ((0, 1), (0, 0)), ((1, 0), (1, 1)), ((1, 1), (1, 0)), ((0, 2), (1, 2)), ((1, 2), (0, 2)), ((1, 1), (1, 2)), ((1, 2), (1, 1)), ((0, 2), (0, 3)), ((0, 3), (0, 2)), ((1, 2), (2, 2)), ((2, 2), (1, 2)), ((2, 1), (2, 2)), ((2, 2), (2, 1))]",4,2,0.6296,5,12,0
01,2,42,16,1,3,"[((1, 0), (2, 0)), ((2, 0), (1, 0)), ((0, 1), (0, 2)), ((0, 2), (0, 1)), ((0, 2), (1, 2)), ((1, 2), (0, 2)), ((0, 0), (0, 1)), ((0, 1), (0, 0)), ((2, 0), (3, 0)), ((3, 0), (2, 0)), ((2, 2), (3, 2)), ((3, 2), (2, 2)), ((0, 2), (0, 3)), ((0, 3), (0, 2)), ((3, 0), (3, 1)), ((3, 1), (3, 0)), ((2, 3), (3, 3)), ((3, 3), (2, 3)), ((2, 0), (2, 1)), ((2, 1), (2, 0)), ((3, 1), (3, 2)), ((3, 2), (3, 1)), ((0, 3), (1, 3)), ((1, 3), (0, 3)), ((0, 1), (1, 1)), ((1, 1), (0, 1)), ((1, 1), (1, 2)), ((1, 2), (1, 1)), ((1, 2), (2, 2)), ((2, 2), (1, 2)), ((1, 3), (2, 3)), ((2, 3), (1, 3))]",2,2,0.6145,14,3,1
01,2,43,17,2,3,"[((0, 0), (0, 1)), ((0, 1), (0, 0)), ((2, 3), (3, 3)), ((3, 3), (2, 3)), ((1, 0), (1, 1)), ((1, 1), (1, 0)), ((0, 0), (1, 0)), ((1, 0), (0, 0)), ((1, 2), (1, 3)), ((1, 3), (1, 2)), ((1, 0), (2, 0)), ((2, 0), (1, 0)), ((3, 1), (3, 2)), ((3, 2), (3, 1)), ((3, 0), (3, 1)), ((3, 1), (3, 0)), ((0, 2), (1, 2)), ((1, 2), (0, 2)), ((0, 2), (0, 3)), ((0, 3), (0, 2)), ((0, 3), (1, 3)), ((1, 3), (0, 3)), ((2, 0), (2, 1)), ((2, 1), (2, 0)), ((2, 2), (3, 2)), ((3, 2), (2, 2)), ((0, 1), (0, 2)), ((0, 2), (0, 1)), ((1, 2), (2, 2)), ((2, 2), (1, 2)), ((0, 1), (1, 1)), ((1, 1), (0, 1)), ((1, 3), (2, 3)), ((2, 3), (1, 3))]",4,2,0.2804,8,9,0
01,2,44,17,2,3,"[((3, 0), (3, 1)), ((3, 1), (3, 0)), ((0, 2), (0, 3)), ((0, 3), (0, 2)), ((2, 1), (3, 1)), ((3, 1), (2, 1)), ((0, 1), (0, 2)), ((0, 2), (0, 1)), ((3, 2), (3, 3)), ((3, 3), (3, 2)), ((2, 2), (2, 3)), ((2, 3), (2, 2)), ((1, 0), (1, 1)), ((1, 1), (1, 0)), ((1, 0), (2, 0)), ((2, 0), (1, 0)), ((2, 0), (3, 0)), ((3, 0), (2, 0)), ((3, 1), (3, 2)), ((3, 2), (3, 1)), ((0, 1), (1, 1)), ((1, 1), (0, 1)), ((0, 0), (0, 1)), ((0, 1), (0, 0)), ((1, 3), (2, 3)), ((2, 3), (1, 3)), ((2, 3), (3, 3)), ((3, 3), (2, 3)), ((2, 2), (3, 2)), ((3, 2), (2, 2)), ((1, 2), (1, 3)), ((1, 3), (1, 2)), ((0, 3), (1, 3)), ((1, 3), (0, 3))]",3,3,2.2316,2,15,1
01,2,45,18,3,3,"[((1, 1), (1, 2)), ((1, 2), (1, 1)), ((2, 3), (3, 3)), ((3, 3), (2, 3)), ((3, 2), (3, 3)), ((3, 3), (3, 2)), ((3, 0), (3, 1)), ((3, 1), (3, 0)), ((0, 2), (1, 2)), ((1, 2), (0, 2)), ((2, 0), (3, 0)), ((3, 0), (2, 0)), ((3, 1), (3, 2)), ((3, 2), (3, 1)), ((2, 2), (3, 2)), ((3, 2), (2, 2)), ((0, 2), (0, 3)), ((0, 3), (0, 2)), ((2, 0), (2, 1)), ((2, 1), (2, 0)), ((1, 1), (2, 1)), ((2, 1), (1, 1)), ((0, 3), (1, 3)), ((1, 3), (0, 3)), ((1, 0), (2, 0)), ((2, 0), (1, 0)), ((2, 1), (3, 1)), ((3, 1), (2, 1)), ((0, 1), (1, 1)), ((1, 1), (0, 1)), ((1, 2), (2, 2)), ((2, 2), (1, 2)), ((0, 0), (0, 1)), ((0, 1), (0, 0)), ((1, 3), (2, 3)), ((2, 3), (1, 3))]",6,5,1.9126,3,14,0
01,2,46,18,3,3,"[((3, 2), (3, 3)), ((3, 3), (3, 2)), ((1, 1), (1, 2)), ((1, 2), (1, 1)), ((0, 1), (1, 1)), ((1, 1), (0, 1)), ((1, 2), (1, 3)), ((1, 3), (1, 2)), ((0, 0), (0, 1)), ((0, 1), (0, 0)), ((2, 0), (3, 0)), ((3, 0), (2, 0)), ((2, 3), (3, 3)), ((3, 3), (2, 3)), ((2, 2), (2, 3)), ((2, 3), (2, 2)), ((3, 0), (3, 1)), ((3, 1), (3, 0)), ((1, 2), (2, 2)), ((2, 2), (1, 2)), ((2, 2), (3, 2)), ((3, 2), (2, 2)), ((1, 0), (1, 1)), ((1, 1), (1, 0)), ((1, 3), (2, 3)), ((2, 3), (1, 3)), ((2, 1), (3, 1)), ((3, 1), (2, 1)), ((3, 1), (3, 2)), ((3, 2), (3, 1)), ((1, 1), (2, 1)), ((2, 1), (1, 1)), ((0, 2), (0, 3)), ((0, 3), (0, 2)), ((0, 2), (1, 2)), ((1, 2), (0, 2))]",6,5,2.7138,5,12,0
01,2,47,15,0,3,"[((3, 1), (3, 2)), ((3, 2), (3, 1)), ((0, 3), (1, 3)), ((1, 3), (0, 3)), ((0, 2), (1, 2)), ((1, 2), (0, 2)), ((2, 0), (2, 1)), ((2, 1), (2, 0)), ((0, 0), (1, 0)), ((1, 0), (0, 0)), ((1, 3), (2, 3)), ((2, 3), (1, 3)), ((2, 3), (3, 3)), ((3, 3), (2, 3)), ((2, 1), (3, 1)), ((3, 1), (2, 1)), ((2, 0), (3, 0)), ((3, 0), (2, 0)), ((1, 0), (1, 1)), ((1, 1), (1, 0)), ((1, 0), (2, 0)), ((2, 0), (1, 0)), ((3, 2), (3, 3)), ((3, 3), (3, 2)), ((0, 0), (0, 1)), ((0, 1), (0, 0)), ((1, 2), (1, 3)), ((1, 3), (1, 2)), ((1, 2), (2, 2)), ((2, 2), (1, 2))]",1,1,0.2137,15,2,1
01,2,48,17,2,3,"[((3, 0), (3, 1)), ((3, 1), (3, 0)), ((2, 2), (2, 3)), ((2, 3), (2, 2)), ((3, 2), (3, 3)), ((3, 3), (3, 2)), ((2, 3), (3, 3)), ((3, 3), (2, 3)), ((2, 2), (3, 2)), ((3, 2), (2, 2)), ((1, 1), (1, 2)), ((1, 2), (1, 1)), ((0, 0), (1, 0)), ((1, 0), (0, 0)), ((0, 3), (1, 3)), ((1, 3), (0, 3)), ((0, 1), (0, 2)), ((0, 2), (0, 1)), ((0, 1), (1, 1)), ((1, 1), (0, 1)), ((1, 3), (2, 3)), ((2, 3), (1, 3)), ((2, 0), (3, 0)), ((3, 0), (2, 0)), ((1, 2), (1, 3)), ((1, 3), (1, 2)), ((3, 1), (3, 2)), ((3, 2), (3, 1)), ((0, 0), (0, 1)), ((0, 1), (0, 0)), ((1, 1), (2, 1)), ((2, 1), (1, 1)), ((2, 0), (2, 1)), ((2, 1), (2, 0))]",5,3,2.9291,12,5,0
01,2,49,18,3,3,"[((1, 2), (1, 3)), ((1, 3), (1, 2)), ((2, 2), (2, 3)), ((2, 3), (2, 2)), ((1, 0), (1, 1)), ((1, 1), (1, 0)), ((0, 2), (0, 3)), ((0, 3), (0, 2)), ((2, 0), (2, 1)), ((2, 1), (2, 0)), ((3, 0), (3, 1)), ((3, 1), (3, 0)), ((0, 1), (1, 1)), ((1, 1), (0, 1)), ((2, 2), (3, 2)), ((3, 2), (2, 2)), ((2, 0), (3, 0)), ((3, 0), (2, 0)), ((0, 1), (0, 2)), ((0, 2), (0, 1)), ((1, 3), (2, 3)), ((2, 3), (1, 3)), ((0, 2), (1, 2)), ((1, 2), (0, 2)), ((3, 2), (3, 3)), ((3, 3), (3, 2)), ((3, 1), (3, 2)), ((3, 2), (3, 1)), ((1, 2), (2, 2)), ((2, 2), (1, 2)), ((2, 3), (3, 3)), ((3, 3), (2, 3)), ((0, 0), (0, 1)), ((0, 1), (0, 0)), ((1, 1), (2, 1)), ((2, 1), (1, 1))]",6,6,3.4802,5,12,1
01,2,50,16,1,3,"[((2, 0), (3, 0)), ((3, 0), (2, 0)), ((1, 1), (1, 2)), ((1, 2), (1, 1)), ((0, 0), (0, 1)), ((0, 1), (0, 0)), ((1, 0), (1, 1)), ((1, 1), (1, 0)), ((2, 1), (2, 2)), ((2, 2), (2, 1)), ((1, 2), (1, 3)), ((1, 3), (1, 2)), ((0, 0), (1, 0)), ((1, 0), (0, 0)), ((2, 2), (2, 3)), ((2, 3), (2, 2)), ((2, 3), (3, 3)), ((3, 3), (2, 3)), ((3, 0), (3, 1)), ((3, 1), (3, 0)), ((3, 1), (3, 2)), ((3, 2), (3, 1)), ((2, 2), (3, 2)), ((3, 2), (2, 2)), ((0, 2), (1, 2)), ((1, 2), (0, 2)), ((3, 2), (3, 3)), ((3, 3), (3, 2)), ((1, 2), (2, 2)), ((2, 2), (1, 2)), ((0, 3), (1, 3)), ((1, 3), (0, 3))]",2,2,0.8638,2,15,1
01,2,51,17,2,3,"[((0, 0), (0, 1)), ((0, 1), (0, 0)), ((1, 0), (2, 0)), ((2, 0), (1, 0)), ((2, 0), (3, 0)), ((3, 0), (2, 0)), ((0, 1), (0, 2)), ((0, 2), (0, 1)), ((1, 2), (1, 3)), ((1, 3), (1, 2)), ((2, 1), (2, 2)), ((2, 2), (2, 1)), ((0, 2), (1, 2)), ((1, 2), (0, 2)), ((2, 2), (3, 2)), ((3, 2), (2, 2)), ((2, 3), (3, 3)), ((3, 3), (2, 3)), ((0, 1), (1, 1)), ((1, 1), (0, 1)), ((2, 0), (2, 1)), ((2, 1), (2, 0)), ((3, 1), (3, 2)), ((3, 2), (3, 1)), ((3, 2), (3, 3)), ((3, 3), (3, 2)), ((0, 2), (0, 3)), ((0, 3), (0, 2)), ((1, 3), (2, 3)), ((2, 3), (1, 3)), ((0, 0), (1, 0)), ((1, 0), (0, 0)), ((1, 0), (1, 1)), ((1, 1), (1, 0))]",5,3,0.5972,5,12,0
01,2,52,15,0,3,"[((1, 0), (1, 1)), ((1, 1), (1, 0)), ((0, 2), (0, 3)), ((0, 3), (0, 2)), ((3, 0), (3, 1)), ((3, 1), (3, 0)), ((2, 2), (2, 3)), ((2, 3), (2, 2)), ((3, 2), (3, 3)), ((3, 3), (3, 2)), ((2, 1), (3, 1)), ((3, 1), (2, 1)), ((1, 2), (1, 3)), ((1, 3), (1, 2)), ((1, 1), (1, 2)), ((1, 2), (1, 1)), ((1, 3), (2, 3)), ((2, 3), (1, 3)), ((3, 1), (3, 2)), ((3, 2), (3, 1)), ((0, 1), (0, 2)), ((0, 2), (0, 1)), ((2, 0), (2, 1)), ((2, 1), (2, 0)), ((2, 3), (3, 3)), ((3, 3), (2, 3)), ((0, 0), (0, 1)), ((0, 1), (0, 0)), ((0, 1), (1, 1)), ((1, 1), (0, 1))]",1,1,0.5471,2,15,1
01,2,53,17,2,3,"[((0, 2), (1, 2)), ((1, 2), (0, 2)), ((1, 0), (1, 1)), ((1, 1), (1, 0)), ((3, 2), (3, 3)), ((3, 3), (3, 2)), ((2, 2), (3, 2)), ((3, 2), (2, 2)), ((3, 0), (3, 1)), ((3, 1), (3, 0)), ((2, 0), (2, 1)), ((2, 1), (2, 0)), ((2, 1), (2, 2)), ((2, 2), (2, 1)), ((0, 0), (0, 1)), ((0, 1), (0, 0)), ((2, 0), (3, 0)), ((3, 0), (2, 0)), ((1, 1), (1, 2)), ((1, 2), (1, 1)), ((0, 0), (1, 0)), ((1, 0), (0, 0)), ((0, 1), (1, 1)), ((1, 1), (0, 1)), ((1, 2), (1, 3)), ((1, 3), (1, 2)), ((1, 0), (2, 0)), ((2, 0), (1, 0)), ((3, 1), (3, 2)), ((3, 2), (3, 1)), ((0, 2), (0, 3)), ((0, 3), (0, 2)), ((2, 2), (2, 3)), ((2, 3), (2, 2))]",4,3,1.8634,14,3,0
01,2,54,18,3,3,"[((3, 1), (3, 2)), ((3, 2), (3, 1)), ((3, 2), (3, 3)), ((3, 3), (3, 2)), ((1, 1), (1, 2)), ((1, 2), (1, 1)), ((0, 2), (0, 3)), ((0, 3), (0, 2)), ((0, 0), (0, 1)), ((0, 1), (0, 0)), ((2, 1), (2, 2)), ((2, 2), (2, 1)), ((1, 2), (1, 3)), ((1, 3), (1, 2)), ((0, 2), (1, 2)), ((1, 2), (0, 2)), ((2, 1), (3, 1)), ((3, 1), (2, 1)), ((2, 2), (2, 3)), ((2, 3), (2, 2)), ((2, 3), (3, 3)), ((3, 3), (2, 3)), ((0, 0), (1, 0)), ((1, 0), (0, 0)), ((0, 3), (1, 3)), ((1, 3), (0, 3)), ((3, 0), (3, 1)), ((3, 1), (3, 0)), ((2, 0), (3, 0)), ((3, 0), (2, 0)), ((1, 1), (2, 1)), ((2, 1), (1, 1)), ((1, 0), (2, 0)), ((2, 0), (1, 0)), ((2, 2), (3, 2)), ((3, 2), (2, 2))]",6,5,1.7306,9,8,0
01,3,1,18,3,1,"[((0, 2), (1, 2)), ((1, 2), (0, 2)), ((0, 3), (1, 3)), ((1, 3), (0, 3)), ((3, 2), (3, 3)), ((3, 3), (3, 2)), ((2, 0), (2, 1)), ((2, 1), (2, 0)), ((2, 0), (3, 0)), ((3, 0), (2, 0)), ((2, 1), (2, 2)), ((2, 2), (2, 1)), ((0, 1), (1, 1)), ((1, 1), (0, 1)), ((1, 1), (2, 1)), ((2, 1), (1, 1)), ((2, 2), (2, 3)), ((2, 3), (2, 2)), ((0, 0), (0, 1)), ((0, 1), (0, 0)), ((1, 1), (1, 2)), ((1, 2), (1, 1)), ((1, 0), (2, 0)), ((2, 0), (1, 0)), ((2, 3), (3, 3)), ((3, 3), (2, 3)), ((2, 1), (3, 1)), ((3, 1), (2, 1)), ((3, 0), (3, 1)), ((3, 1), (3, 0)), ((1, 2), (1, 3)), ((1, 3), (1, 2)), ((0, 2), (0, 3)), ((0, 3), (0, 2)), ((2, 2), (3, 2)), ((3, 2), (2, 2))]",6,4,1.5651,15,2,0
01,3,2,16,1,1,"[((1, 3), (2, 3)), ((2, 3), (1, 3)), ((3, 0), (3, 1)), ((3, 1), (3, 0)), ((0, 0), (1, 0)), ((1, 0), (0, 0)), ((3, 2), (3, 3)), ((3, 3), (3, 2)), ((1, 2), (2, 2)), ((2, 2), (1, 2)), ((2, 2), (3, 2)), ((3, 2), (2, 2)), ((0, 3), (1, 3)), ((1, 3), (0, 3)), ((2, 1), (2, 2)), ((2, 2), (2, 1)), ((1, 0), (1, 1)), ((1, 1), (1, 0)), ((2, 0), (2, 1)), ((2, 1), (2, 0)), ((0, 2), (0, 3)), ((0, 3), (0, 2)), ((0, 1), (0, 2)), ((0, 2), (0, 1)), ((1, 0), (2, 0)), ((2, 0), (1, 0)), ((2, 1), (3, 1)), ((3, 1), (2, 1)), ((2, 3), (3, 3)), ((3, 3), (2, 3)), ((2, 2), (2, 3)), ((2, 3), (2, 2))]",2,3,1.2135,5,12,0
01,3,3,16,1,1,"[((1, 1), (2, 1)), ((2, 1), (1, 1)), ((2, 2), (2, 3)), ((2, 3), (2, 2)), ((2, 1), (2, 2)), ((2, 2), (2, 1)), ((2, 2), (3, 2)), ((3, 2), (2, 2)), ((1, 0), (2, 0)), ((2, 0), (1, 0)), ((0, 0), (0, 1)), ((0, 1), (0, 0)), ((0, 2), (1, 2)), ((1, 2), (0, 2)), ((0, 1), (1, 1)), ((1, 1), (0, 1)), ((1, 2), (2, 2)), ((2, 2), (1, 2)), ((0, 0), (1, 0)), ((1, 0), (0, 0)), ((3, 0), (3, 1)), ((3, 1), (3, 0)), ((2, 0), (2, 1)), ((2, 1), (2, 0)), ((2, 0), (3, 0)), ((3, 0), (2, 0)), ((2, 3), (3, 3)), ((3, 3), (2, 3)), ((0, 3), (1, 3)), ((1, 3), (0, 3)), ((0, 2), (0, 3)), ((0, 3), (0, 2))]",2,2,1.9316,9,8,1
01,3,4,18,3,1,"[((0, 3), (1, 3)), ((1, 3), (0, 3)), ((3, 0), (3, 1)), ((3, 1), (3, 0)), ((3, 2), (3, 3)), ((3, 3), (3, 2)), ((1, 2), (1, 3)), ((1, 3), (1, 2)), ((0, 1), (0, 2)), ((0, 2), (0, 1)), ((3, 1), (3, 2)), ((3, 2), (3, 1)), ((1, 2), (2, 2)), ((2, 2), (1, 2)), ((0, 1), (1, 1)), ((1, 1), (0, 1)), ((2, 1), (3, 1)), ((3, 1), (2, 1)), ((2, 2), (2, 3)), ((2, 3), (2, 2)), ((0, 0), (0, 1)), ((0, 1), (0, 0)), ((0, 2), (0, 3)), ((0, 3), (0, 2)), ((1, 0), (2, 0)), ((2, 0), (1, 0)), ((1, 3), (2, 3)), ((2, 3), (1, 3)), ((1, 0), (1, 1)), ((1, 1), (1, 0)), ((2, 0), (3, 0)), ((3, 0), (2, 0)), ((1, 1), (2, 1)), ((2, 1), (1, 1)), ((2, 1), (2, 2)), ((2, 2), (2, 1))]",6,3,1.4631,3,14,0
01,3,5,16,1,1,"[((0, 2), (0, 3)), ((0, 3), (0, 2)), ((0, 0), (1, 0)), ((1, 0), (0, 0)), ((1, 0), (1, 1)), ((1, 1), (1, 0)), ((1, 1), (1, 2)), ((1, 2), (1, 1)), ((2, 1), (2, 2)), ((2, 2), (2, 1)), ((2, 3), (3, 3)), ((3, 3), (2, 3)), ((3, 2), (3, 3)), ((3, 3), (3, 2)), ((0, 2), (1, 2)), ((1, 2), (0, 2)), ((3, 0), (3, 1)), ((3, 1), (3, 0)), ((0, 0), (0, 1)), ((0, 1), (0, 0)), ((0, 1), (1, 1)), ((1, 1), (0, 1)), ((1, 3), (2, 3)), ((2, 3), (1, 3)), ((2, 0), (2, 1)), ((2, 1), (2, 0)), ((2, 0), (3, 0)), ((3, 0), (2, 0)), ((1, 1), (2, 1)), ((2, 1), (1, 1)), ((0, 3), (1, 3)), ((1, 3), (0, 3))]",2,2,1.9972,2,15,1
01,3,6,15,0,1,"[((1, 1), (1, 2)), ((1, 2), (1, 1)), ((2, 0), (3, 0)), ((3, 0), (2, 0)), ((0, 2), (1, 2)), ((1, 2), (0, 2)), ((1, 1), (2, 1)), ((2, 1), (1, 1)), ((3, 2), (3, 3)), ((3, 3), (3, 2)), ((1, 2), (1, 3)), ((1, 3), (1, 2)), ((3, 0), (3, 1)), ((3, 1), (3, 0)), ((1, 0), (2, 0)), ((2, 0), (1, 0)), ((2, 2), (2, 3)), ((2, 3), (2, 2)), ((2, 1), (3, 1)), ((3, 1), (2, 1)), ((0, 3), (1, 3)), ((1, 3), (0, 3)), ((0, 1), (0, 2)), ((0, 2), (0, 1)), ((0, 0), (1, 0)), ((1, 0), (0, 0)), ((1, 2), (2, 2)), ((2, 2), (1, 2)), ((2, 2), (3, 2)), ((3, 2), (2, 2))]",1,1,0.3296,3,14,1
01,3,7,15,0,1,"[((0, 2), (0, 3)), ((0, 3), (0, 2)), ((1, 2), (2, 2)), ((2, 2), (1, 2)), ((1, 1), (2, 1)), ((2, 1), (1, 1)), ((3, 1), (3, 2)), ((3, 2), (3, 1)), ((3, 0), (3, 1)), ((3, 1), (3, 0)), ((0, 1), (1, 1)), ((1, 1), (0, 1)), ((2, 0), (3, 0)), ((3, 0), (2, 0)), ((1, 0), (2, 0)), ((2, 0), (1, 0)), ((3, 2), (3, 3)), ((3, 3), (3, 2)), ((0, 0), (0, 1)), ((0, 1), (0, 0)), ((2, 3), (3, 3)), ((3, 3), (2, 3)), ((0, 3), (1, 3)), ((1, 3), (0, 3)), ((0, 2), (1, 2)), ((1, 2), (0, 2)), ((1, 3), (2, 3)), ((2, 3), (1, 3)), ((2, 1), (3, 1)), ((3, 1), (2, 1))]",1,1,0.2984,2,15,1
01,3,8,15,0,1,"[((0, 2), (1, 2)), ((1, 2), (0, 2)), ((3, 0), (3, 1)), ((3, 1), (3, 0)), ((3, 1), (3, 2)), ((3, 2), (3, 1)), ((0, 0), (1, 0)), ((1, 0), (0, 0)), ((3, 2), (3, 3)), ((3, 3), (3, 2)), ((0, 0), (0, 1)), ((0, 1), (0, 0)), ((0, 1), (1, 1)), ((1, 1), (0, 1)), ((0, 2), (0, 3)), ((0, 3), (0, 2)), ((1, 3), (2, 3)), ((2, 3), (1, 3)), ((0, 1), (0, 2)), ((0, 2), (0, 1)), ((2, 2), (3, 2)), ((3, 2), (2, 2)), ((2, 0), (3, 0)), ((3, 0), (2, 0)), ((1, 2), (1, 3)), ((1, 3), (1, 2)), ((2, 1), (2, 2)), ((2, 2), (2, 1)), ((2, 3), (3, 3)), ((3, 3), (2, 3))]",1,2,1.2136,8,9,0
01,3,9,18,3,1,"[((1, 2), (2, 2)), ((2, 2), (1, 2)), ((0, 1), (1, 1)), ((1, 1), (0, 1)), ((3, 2), (3, 3)), ((3, 3), (3, 2)), ((1, 1), (1, 2)), ((1, 2), (1, 1)), ((0, 0), (1, 0)), ((1, 0), (0, 0)), ((2, 1), (2, 2)), ((2, 2), (2, 1)), ((3, 0), (3, 1)), ((3, 1), (3, 0)), ((2, 3), (3, 3)), ((3, 3), (2, 3)), ((2, 2), (3, 2)), ((3, 2), (2, 2)), ((2, 0), (2, 1)), ((2, 1), (2, 0)), ((1, 3), (2, 3)), ((2, 3), (1, 3)), ((2, 2), (2, 3)), ((2, 3), (2, 2)), ((1, 0), (2, 0)), ((2, 0), (1, 0)), ((0, 0), (0, 1)), ((0, 1), (0, 0)), ((2, 0), (3, 0)), ((3, 0), (2, 0)), ((0, 3), (1, 3)), ((1, 3), (0, 3)), ((2, 1), (3, 1)), ((3, 1), (2, 1)), ((0, 2), (0, 3)), ((0, 3), (0, 2))]",6,2,2.0315,15,2,0
01,3,10,16,1,1,"[((0, 2), (1, 2)), ((1, 2), (0, 2)), ((0, 0), (0, 1)), ((0, 1), (0, 0)), ((2, 0), (2, 1)), ((2, 1), (2, 0)), ((0, 3), (1, 3)), ((1, 3), (0, 3)), ((1, 2), (2, 2)), ((2, 2), (1, 2)), ((3, 1), (3, 2)), ((3, 2), (3, 1)), ((1, 1), (1, 2)), ((1, 2), (1, 1)), ((0, 1), (0, 2)), ((0, 2), (0, 1)), ((1, 2), (1, 3)), ((1, 3), (1, 2)), ((1, 0), (1, 1)), ((1, 1), (1, 0)), ((0, 1), (1, 1)), ((1, 1), (0, 1)), ((2, 0), (3, 0)), ((3, 0), (2, 0)), ((2, 2), (2, 3)), ((2, 3), (2, 2)), ((2, 1), (2, 2)), ((2, 2), (2, 1)), ((2, 3), (3, 3)), ((3, 3), (2, 3)), ((2, 1), (3, 1)), ((3, 1), (2, 1))]",3,4,2.5624,9,8,0
01,3,11,18,3,1,"[((1, 2), (1, 3)), ((1, 3), (1, 2)), ((2, 2), (3, 2)), ((3, 2), (2, 2)), ((2, 1), (3, 1)), ((3, 1), (2, 1)), ((0, 3), (1, 3)), ((1, 3), (0, 3)), ((2, 3), (3, 3)), ((3, 3), (2, 3)), ((2, 0), (3, 0)), ((3, 0), (2, 0)), ((1, 0), (1, 1)), ((1, 1), (1, 0)), ((2, 0), (2, 1)), ((2, 1), (2, 0)), ((0, 1), (0, 2)), ((0, 2), (0, 1)), ((3, 0), (3, 1)), ((3, 1), (3, 0)), ((3, 1), (3, 2)), ((3, 2), (3, 1)), ((3, 2), (3, 3)), ((3, 3), (3, 2)), ((0, 1), (1, 1)), ((1, 1), (0, 1)), ((0, 2), (1, 2)), ((1, 2), (0, 2)), ((0, 0), (0, 1)), ((0, 1), (0, 0)), ((0, 0), (1, 0)), ((1, 0), (0, 0)), ((2, 1), (2, 2)), ((2, 2), (2, 1)), ((1, 3), (2, 3)), ((2, 3), (1, 3))]",5,4,2.8981,14,3,0
01,3,12,18,3,1,"[((2, 1), (2, 2)), ((2, 2), (2, 1)), ((0, 2), (1, 2)), ((1, 2), (0, 2)), ((1, 1), (2, 1)), ((2, 1), (1, 1)), ((0, 0), (1, 0)), ((1, 0), (0, 0)), ((1, 1), (1, 2)), ((1, 2), (1, 1)), ((1, 0), (1, 1)), ((1, 1), (1, 0)), ((1, 2), (1, 3)), ((1, 3), (1, 2)), ((0, 1), (0, 2)), ((0, 2), (0, 1)), ((2, 0), (3, 0)), ((3, 0), (2, 0)), ((2, 1), (3, 1)), ((3, 1), (2, 1)), ((0, 2), (0, 3)), ((0, 3), (0, 2)), ((0, 3), (1, 3)), ((1, 3), (0, 3)), ((2, 2), (3, 2)), ((3, 2), (2, 2)), ((1, 3), (2, 3)), ((2, 3), (1, 3)), ((1, 0), (2, 0)), ((2, 0), (1, 0)), ((3, 0), (3, 1)), ((3, 1), (3, 0)), ((2, 2), (2, 3)), ((2, 3), (2, 2)), ((3, 2), (3, 3)), ((3, 3), (3, 2))]",6,3,4.1624,9,8,0
01,3,13,16,1,1,"[((0, 0), (1, 0)), ((1, 0), (0, 0)), ((0, 2), (1, 2)), ((1, 2), (0, 2)), ((0, 2), (0, 3)), ((0, 3), (0, 2)), ((0, 1), (0, 2)), ((0, 2), (0, 1)), ((3, 1), (3, 2)), ((3, 2), (3, 1)), ((2, 3), (3, 3)), ((3, 3), (2, 3)), ((1, 3), (2, 3)), ((2, 3), (1, 3)), ((2, 1), (3, 1)), ((3, 1), (2, 1)), ((2, 1), (2, 2)), ((2, 2), (2, 1)), ((3, 2), (3, 3)), ((3, 3), (3, 2)), ((3, 0), (3, 1)), ((3, 1), (3, 0)), ((1, 1), (1, 2)), ((1, 2), (1, 1)), ((1, 0), (1, 1)), ((1, 1), (1, 0)), ((2, 2), (2, 3)), ((2, 3), (2, 2)), ((2, 0), (3, 0)), ((3, 0), (2, 0)), ((1, 1), (2, 1)), ((2, 1), (1, 1))]",2,3,1.7983,2,15,0
01,3,14,17,2,1,"[((0, 2), (1, 2)), ((1, 2), (0, 2)), ((2, 2), (3, 2)), ((3, 2), (2, 2)), ((0, 0), (1, 0)), ((1, 0), (0, 0)), ((1, 3), (2, 3)), ((2, 3), (1, 3)), ((1, 1), (1, 2)), ((1, 2), (1, 1)), ((0, 2), (0, 3)), ((0, 3), (0, 2)), ((3, 2), (3, 3)), ((3, 3), (3, 2)), ((0, 1), (0, 2)), ((0, 2), (0, 1)), ((2, 1), (3, 1)), ((3, 1), (2, 1)), ((2, 0), (2, 1)), ((2, 1), (2, 0)), ((0, 3), (1, 3)), ((1, 3), (0, 3)), ((1, 2), (1, 3)), ((1, 3), (1, 2)), ((2, 0), (3, 0)), ((3, 0), (2, 0)), ((1, 0), (1, 1)), ((1, 1), (1, 0)), ((2, 1), (2, 2)), ((2, 2), (2, 1)), ((0, 1), (1, 1)), ((1, 1), (0, 1)), ((1, 1), (2, 1)), ((2, 1), (1, 1))]",3,4,1.5613,15,2,0
01,3,15,17,2,1,"[((3, 0), (3, 1)), ((3, 1), (3, 0)), ((2, 2), (3, 2)), ((3, 2), (2, 2)), ((0, 3), (1, 3)), ((1, 3), (0, 3)), ((3, 1), (3, 2)), ((3, 2), (3, 1)), ((0, 2), (0, 3)), ((0, 3), (0, 2)), ((1, 0), (2, 0)), ((2, 0), (1, 0)), ((1, 1), (1, 2)), ((1, 2), (1, 1)), ((2, 2), (2, 3)), ((2, 3), (2, 2)), ((2, 0), (2, 1)), ((2, 1), (2, 0)), ((0, 0), (0, 1)), ((0, 1), (0, 0)), ((1, 2), (2, 2)), ((2, 2), (1, 2)), ((0, 0), (1, 0)), ((1, 0), (0, 0)), ((3, 2), (3, 3)), ((3, 3), (3, 2)), ((1, 3), (2, 3)), ((2, 3), (1, 3)), ((1, 2), (1, 3)), ((1, 3), (1, 2)), ((0, 1), (1, 1)), ((1, 1), (0, 1)), ((0, 1), (0, 2)), ((0, 2), (0, 1))]",4,4,1.3308,2,15,1
01,3,16,18,3,1,"[((0, 3), (1, 3)), ((1, 3), (0, 3)), ((0, 2), (0, 3)), ((0, 3), (0, 2)), ((1, 0), (2, 0)), ((2, 0), (1, 0)), ((1, 2), (2, 2)), ((2, 2), (1, 2)), ((1, 0), (1, 1)), ((1, 1), (1, 0)), ((0, 2), (1, 2)), ((1, 2), (0, 2)), ((1, 2), (1, 3)), ((1, 3), (1, 2)), ((2, 3), (3, 3)), ((3, 3), (2, 3)), ((2, 1), (3, 1)), ((3, 1), (2, 1)), ((0, 1), (0, 2)), ((0, 2), (0, 1)), ((3, 1), (3, 2)), ((3, 2), (3, 1)), ((2, 0), (3, 0)), ((3, 0), (2, 0)), ((2, 1), (2, 2)), ((2, 2), (2, 1)), ((2, 0), (2, 1)), ((2, 1), (2, 0)), ((0, 0), (1, 0)), ((1, 0), (0, 0)), ((2, 2), (2, 3)), ((2, 3), (2, 2)), ((0, 1), (1, 1)), ((1, 1), (0, 1)), ((1, 1), (2, 1)), ((2, 1), (1, 1))]",6,3,1.9945,5,12,0
01,3,17,17,2,1,"[((1, 0), (1, 1)), ((1, 1), (1, 0)), ((2, 1), (2, 2)), ((2, 2), (2, 1)), ((2, 0), (3, 0)), ((3, 0), (2, 0)), ((2, 0), (2, 1)), ((2, 1), (2, 0)), ((1, 2), (2, 2)), ((2, 2), (1, 2)), ((2, 1), (3, 1)), ((3, 1), (2, 1)), ((0, 1), (0, 2)), ((0, 2), (0, 1)), ((0, 0), (1, 0)), ((1, 0), (0, 0)), ((2, 3), (3, 3)), ((3, 3), (2, 3)), ((0, 2), (0, 3)), ((0, 3), (0, 2)), ((0, 3), (1, 3)), ((1, 3), (0, 3)), ((0, 1), (1, 1)), ((1, 1), (0, 1)), ((2, 2), (3, 2)), ((3, 2), (2, 2)), ((1, 1), (1, 2)), ((1, 2), (1, 1)), ((1, 2), (1, 3)), ((1, 3), (1, 2)), ((1, 3), (2, 3)), ((2, 3), (1, 3)), ((3, 2), (3, 3)), ((3, 3), (3, 2))]",4,4,2.7646,15,2,1
01,3,18,16,1,1,"[((3, 0), (3, 1)), ((3, 1), (3, 0)), ((2, 2), (2, 3)), ((2, 3), (2, 2)), ((1, 3), (2, 3)), ((2, 3), (1, 3)), ((1, 2), (1, 3)), ((1, 3), (1, 2)), ((2, 0), (2, 1)), ((2, 1), (2, 0)), ((0, 2), (1, 2)), ((1, 2), (0, 2)), ((1, 2), (2, 2)), ((2, 2), (1, 2)), ((1, 0), (2, 0)), ((2, 0), (1, 0)), ((3, 1), (3, 2)), ((3, 2), (3, 1)), ((2, 0), (3, 0)), ((3, 0), (2, 0)), ((1, 1), (1, 2)), ((1, 2), (1, 1)), ((0, 2), (0, 3)), ((0, 3), (0, 2)), ((0, 0), (1, 0)), ((1, 0), (0, 0)), ((0, 1), (0, 2)), ((0, 2), (0, 1)), ((3, 2), (3, 3)), ((3, 3), (3, 2)), ((1, 1), (2, 1)), ((2, 1), (1, 1))]",3,3,2.347,3,14,1
01,3,19,17,2,1,"[((1, 3), (2, 3)), ((2, 3), (1, 3)), ((0, 0), (1, 0)), ((1, 0), (0, 0)), ((3, 2), (3, 3)), ((3, 3), (3, 2)), ((0, 2), (1, 2)), ((1, 2), (0, 2)), ((2, 3), (3, 3)), ((3, 3), (2, 3)), ((2, 1), (3, 1)), ((3, 1), (2, 1)), ((3, 1), (3, 2)), ((3, 2), (3, 1)), ((1, 2), (1, 3)), ((1, 3), (1, 2)), ((0, 2), (0, 3)), ((0, 3), (0, 2)), ((3, 0), (3, 1)), ((3, 1), (3, 0)), ((2, 1), (2, 2)), ((2, 2), (2, 1)), ((1, 1), (1, 2)), ((1, 2), (1, 1)), ((0, 3), (1, 3)), ((1, 3), (0, 3)), ((2, 0), (3, 0)), ((3, 0), (2, 0)), ((2, 2), (3, 2)), ((3, 2), (2, 2)), ((1, 0), (2, 0)), ((2, 0), (1, 0)), ((0, 1), (0, 2)), ((0, 2), (0, 1))]",4,3,2.2469,3,14,0
01,3,20,17,2,1,"[((0, 0), (1, 0)), ((1, 0), (0, 0)), ((1, 2), (1, 3)), ((1, 3), (1, 2)), ((3, 2), (3, 3)), ((3, 3), (3, 2)), ((1, 0), (1, 1)), ((1, 1), (1, 0)), ((0, 3), (1, 3)), ((1, 3), (0, 3)), ((3, 1), (3, 2)), ((3, 2), (3, 1)), ((0, 1), (1, 1)), ((1, 1), (0, 1)), ((0, 0), (0, 1)), ((0, 1), (0, 0)), ((2, 2), (3, 2)), ((3, 2), (2, 2)), ((2, 3), (3, 3)), ((3, 3), (2, 3)), ((2, 1), (3, 1)), ((3, 1), (2, 1)), ((0, 1), (0, 2)), ((0, 2), (0, 1)), ((1, 0), (2, 0)), ((2, 0), (1, 0)), ((3, 0), (3, 1)), ((3, 1), (3, 0)), ((1, 1), (1, 2)), ((1, 2), (1, 1)), ((2, 0), (3, 0)), ((3, 0), (2, 0)), ((1, 3), (2, 3)), ((2, 3), (1, 3))]",5,3,2.1976,5,12,0
01,3,21,17,2,1,"[((1, 2), (1, 3)), ((1, 3), (1, 2)), ((2, 0), (2, 1)), ((2, 1), (2, 0)), ((1, 1), (2, 1)), ((2, 1), (1, 1)), ((2, 2), (3, 2)), ((3, 2), (2, 2)), ((2, 2), (2, 3)), ((2, 3), (2, 2)), ((0, 3), (1, 3)), ((1, 3), (0, 3)), ((0, 2), (0, 3)), ((0, 3), (0, 2)), ((2, 3), (3, 3)), ((3, 3), (2, 3)), ((0, 1), (0, 2)), ((0, 2), (0, 1)), ((1, 0), (2, 0)), ((2, 0), (1, 0)), ((2, 0), (3, 0)), ((3, 0), (2, 0)), ((0, 0), (0, 1)), ((0, 1), (0, 0)), ((2, 1), (2, 2)), ((2, 2), (2, 1)), ((1, 3), (2, 3)), ((2, 3), (1, 3)), ((2, 1), (3, 1)), ((3, 1), (2, 1)), ((1, 1), (1, 2)), ((1, 2), (1, 1)), ((3, 1), (3, 2)), ((3, 2), (3, 1))]",5,4,3.3484,8,9,0
01,3,22,17,2,1,"[((0, 2), (0, 3)), ((0, 3), (0, 2)), ((1, 3), (2, 3)), ((2, 3), (1, 3)), ((1, 2), (2, 2)), ((2, 2), (1, 2)), ((2, 3), (3, 3)), ((3, 3), (2, 3)), ((2, 2), (3, 2)), ((3, 2), (2, 2)), ((0, 1), (1, 1)), ((1, 1), (0, 1)), ((0, 0), (1, 0)), ((1, 0), (0, 0)), ((2, 0), (2, 1)), ((2, 1), (2, 0)), ((0, 2), (1, 2)), ((1, 2), (0, 2)), ((2, 2), (2, 3)), ((2, 3), (2, 2)), ((3, 0), (3, 1)), ((3, 1), (3, 0)), ((1, 1), (1, 2)), ((1, 2), (1, 1)), ((2, 1), (3, 1)), ((3, 1), (2, 1)), ((3, 1), (3, 2)), ((3, 2), (3, 1)), ((1, 0), (2, 0)), ((2, 0), (1, 0)), ((0, 3), (1, 3)), ((1, 3), (0, 3)), ((0, 0), (0, 1)), ((0, 1), (0, 0))]",3,3,2.5967,15,2,1
01,3,23,16,1,1,"[((2, 2), (3, 2)), ((3, 2), (2, 2)), ((0, 1), (0, 2)), ((0, 2), (0, 1)), ((3, 2), (3, 3)), ((3, 3), (3, 2)), ((2, 0), (2, 1)), ((2, 1), (2, 0)), ((3, 1), (3, 2)), ((3, 2), (3, 1)), ((2, 0), (3, 0)), ((3, 0), (2, 0)), ((1, 2), (2, 2)), ((2, 2), (1, 2)), ((0, 0), (1, 0)), ((1, 0), (0, 0)), ((1, 0), (1, 1)), ((1, 1), (1, 0)), ((1, 3), (2, 3)), ((2, 3), (1, 3)), ((3, 0), (3, 1)), ((3, 1), (3, 0)), ((2, 1), (2, 2)), ((2, 2), (2, 1)), ((0, 2), (0, 3)), ((0, 3), (0, 2)), ((1, 2), (1, 3)), ((1, 3), (1, 2)), ((0, 2), (1, 2)), ((1, 2), (0, 2)), ((0, 1), (1, 1)), ((1, 1), (0, 1))]",2,2,2.1148,2,15,1
01,3,24,17,2,1,"[((2, 1), (3, 1)), ((3, 1), (2, 1)), ((2, 1), (2, 2)), ((2, 2), (2, 1)), ((0, 2), (1, 2)), ((1, 2), (0, 2)), ((1, 1), (1, 2)), ((1, 2), (1, 1)), ((3, 1), (3, 2)), ((3, 2), (3, 1)), ((1, 2), (1, 3)), ((1, 3), (1, 2)), ((1, 0), (1, 1)), ((1, 1), (1, 0)), ((0, 2), (0, 3)), ((0, 3), (0, 2)), ((2, 3), (3, 3)), ((3, 3), (2, 3)), ((2, 2), (2, 3)), ((2, 3), (2, 2)), ((0, 0), (1, 0)), ((1, 0), (0, 0)), ((3, 0), (3, 1)), ((3, 1), (3, 0)), ((0, 1), (1, 1)), ((1, 1), (0, 1)), ((1, 0), (2, 0)), ((2, 0), (1, 0)), ((1, 3), (2, 3)), ((2, 3), (1, 3)), ((2, 0), (3, 0)), ((3, 0), (2, 0)), ((0, 1), (0, 2)), ((0, 2), (0, 1))]",3,3,1.0293,12,5,1
01,3,25,18,3,1,"[((1, 0), (2, 0)), ((2, 0), (1, 0)), ((3, 2), (3, 3)), ((3, 3), (3, 2)), ((1, 2), (1, 3)), ((1, 3), (1, 2)), ((0, 3), (1, 3)), ((1, 3), (0, 3)), ((2, 1), (3, 1)), ((3, 1), (2, 1)), ((2, 2), (3, 2)), ((3, 2), (2, 2)), ((3, 0), (3, 1)), ((3, 1), (3, 0)), ((1, 2), (2, 2)), ((2, 2), (1, 2)), ((0, 2), (1, 2)), ((1, 2), (0, 2)), ((2, 3), (3, 3)), ((3, 3), (2, 3)), ((0, 0), (0, 1)), ((0, 1), (0, 0)), ((1, 0), (1, 1)), ((1, 1), (1, 0)), ((1, 1), (2, 1)), ((2, 1), (1, 1)), ((2, 0), (2, 1)), ((2, 1), (2, 0)), ((2, 2), (2, 3)), ((2, 3), (2, 2)), ((2, 0), (3, 0)), ((3, 0), (2, 0)), ((1, 1), (1, 2)), ((1, 2), (1, 1)), ((0, 0), (1, 0)), ((1, 0), (0, 0))]",3,3,3.0803,8,9,1
01,3,26,18,3,1,"[((2, 3), (3, 3)), ((3, 3), (2, 3)), ((0, 3), (1, 3)), ((1, 3), (0, 3)), ((0, 1), (0, 2)), ((0, 2), (0, 1)), ((1, 0), (1, 1)), ((1, 1), (1, 0)), ((1, 1), (1, 2)), ((1, 2), (1, 1)), ((2, 1), (3, 1)), ((3, 1), (2, 1)), ((1, 0), (2, 0)), ((2, 0), (1, 0)), ((0, 0), (1, 0)), ((1, 0), (0, 0)), ((3, 0), (3, 1)), ((3, 1), (3, 0)), ((0, 0), (0, 1)), ((0, 1), (0, 0)), ((2, 1), (2, 2)), ((2, 2), (2, 1)), ((1, 2), (1, 3)), ((1, 3), (1, 2)), ((0, 1), (1, 1)), ((1, 1), (0, 1)), ((2, 2), (3, 2)), ((3, 2), (2, 2)), ((0, 2), (0, 3)), ((0, 3), (0, 2)), ((1, 2), (2, 2)), ((2, 2), (1, 2)), ((3, 2), (3, 3)), ((3, 3), (3, 2)), ((1, 1), (2, 1)), ((2, 1), (1, 1))]",6,4,2.7284,15,2,0
01,3,27,16,1,1,"[((1, 3), (2, 3)), ((2, 3), (1, 3)), ((3, 2), (3, 3)), ((3, 3), (3, 2)), ((2, 3), (3, 3)), ((3, 3), (2, 3)), ((2, 2), (2, 3)), ((2, 3), (2, 2)), ((2, 0), (3, 0)), ((3, 0), (2, 0)), ((0, 2), (0, 3)), ((0, 3), (0, 2)), ((1, 2), (2, 2)), ((2, 2), (1, 2)), ((0, 1), (1, 1)), ((1, 1), (0, 1)), ((1, 0), (2, 0)), ((2, 0), (1, 0)), ((2, 1), (2, 2)), ((2, 2), (2, 1)), ((2, 0), (2, 1)), ((2, 1), (2, 0)), ((0, 0), (0, 1)), ((0, 1), (0, 0)), ((0, 1), (0, 2)), ((0, 2), (0, 1)), ((0, 2), (1, 2)), ((1, 2), (0, 2)), ((2, 1), (3, 1)), ((3, 1), (2, 1)), ((1, 1), (1, 2)), ((1, 2), (1, 1))]",1,1,0.8127,12,5,1
01,3,28,16,1,1,"[((2, 0), (3, 0)), ((3, 0), (2, 0)), ((0, 3), (1, 3)), ((1, 3), (0, 3)), ((1, 1), (2, 1)), ((2, 1), (1, 1)), ((3, 2), (3, 3)), ((3, 3), (3, 2)), ((2, 0), (2, 1)), ((2, 1), (2, 0)), ((2, 3), (3, 3)), ((3, 3), (2, 3)), ((1, 2), (2, 2)), ((2, 2), (1, 2)), ((1, 1), (1, 2)), ((1, 2), (1, 1)), ((1, 0), (2, 0)), ((2, 0), (1, 0)), ((0, 2), (0, 3)), ((0, 3), (0, 2)), ((0, 1), (0, 2)), ((0, 2), (0, 1)), ((2, 1), (2, 2)), ((2, 2), (2, 1)), ((0, 0), (0, 1)), ((0, 1), (0, 0)), ((3, 0), (3, 1)), ((3, 1), (3, 0)), ((1, 3), (2, 3)), ((2, 3), (1, 3)), ((0, 2), (1, 2)), ((1, 2), (0, 2))]",2,2,0.6285,9,8,1
01,3,29,18,3,1,"[((1, 0), (2, 0)), ((2, 0), (1, 0)), ((2, 0), (2, 1)), ((2, 1), (2, 0)), ((3, 0), (3, 1)), ((3, 1), (3, 0)), ((1, 1), (1, 2)), ((1, 2), (1, 1)), ((1, 3), (2, 3)), ((2, 3), (1, 3)), ((0, 3), (1, 3)), ((1, 3), (0, 3)), ((0, 0), (0, 1)), ((0, 1), (0, 0)), ((1, 2), (1, 3)), ((1, 3), (1, 2)), ((2, 2), (3, 2)), ((3, 2), (2, 2)), ((0, 1), (0, 2)), ((0, 2), (0, 1)), ((1, 0), (1, 1)), ((1, 1), (1, 0)), ((0, 2), (1, 2)), ((1, 2), (0, 2)), ((0, 0), (1, 0)), ((1, 0), (0, 0)), ((2, 1), (3, 1)), ((3, 1), (2, 1)), ((3, 1), (3, 2)), ((3, 2), (3, 1)), ((2, 2), (2, 3)), ((2, 3), (2, 2)), ((3, 2), (3, 3)), ((3, 3), (3, 2)), ((0, 2), (0, 3)), ((0, 3), (0, 2))]",5,4,4.415,12,5,0
01,3,30,17,2,1,"[((2, 3), (3, 3)), ((3, 3), (2, 3)), ((0, 1), (0, 2)), ((0, 2), (0, 1)), ((1, 1), (2, 1)), ((2, 1), (1, 1)), ((0, 3), (1, 3)), ((1, 3), (0, 3)), ((2, 1), (2, 2)), ((2, 2), (2, 1)), ((1, 0), (1, 1)), ((1, 1), (1, 0)), ((3, 0), (3, 1)), ((3, 1), (3, 0)), ((3, 2), (3, 3)), ((3, 3), (3, 2)), ((0, 2), (0, 3)), ((0, 3), (0, 2)), ((2, 2), (2, 3)), ((2, 3), (2, 2)), ((2, 2), (3, 2)), ((3, 2), (2, 2)), ((1, 0), (2, 0)), ((2, 0), (1, 0)), ((1, 1), (1, 2)), ((1, 2), (1, 1)), ((1, 2), (2, 2)), ((2, 2), (1, 2)), ((2, 1), (3, 1)), ((3, 1), (2, 1)), ((0, 0), (1, 0)), ((1, 0), (0, 0)), ((0, 0), (0, 1)), ((0, 1), (0, 0))]",4,4,3.5798,15,2,1
01,3,31,17,2,1,"[((2, 0), (3, 0)), ((3, 0), (2, 0)), ((0, 1), (1, 1)), ((1, 1), (0, 1)), ((1, 3), (2, 3)), ((2, 3), (1, 3)), ((0, 0), (1, 0)), ((1, 0), (0, 0)), ((0, 0), (0, 1)), ((0, 1), (0, 0)), ((2, 2), (2, 3)), ((2, 3), (2, 2)), ((2, 0), (2, 1)), ((2, 1), (2, 0)), ((2, 1), (3, 1)), ((3, 1), (2, 1)), ((1, 2), (1, 3)), ((1, 3), (1, 2)), ((1, 1), (1, 2)), ((1, 2), (1, 1)), ((0, 3), (1, 3)), ((1, 3), (0, 3)), ((3, 2), (3, 3)), ((3, 3), (3, 2)), ((2, 2), (3, 2)), ((3, 2), (2, 2)), ((2, 1), (2, 2)), ((2, 2), (2, 1)), ((0, 2), (1, 2)), ((1, 2), (0, 2)), ((0, 1), (0, 2)), ((0, 2), (0, 1)), ((3, 0), (3, 1)), ((3, 1), (3, 0))]",4,3,2.8967,3,14,0
01,3,32,17,2,1,"[((2, 1), (3, 1)), ((3, 1), (2, 1)), ((1, 0), (1, 1)), ((1, 1), (1, 0)), ((1, 1), (1, 2)), ((1, 2), (1, 1)), ((2, 0), (3, 0)), ((3, 0), (2, 0)), ((2, 2), (2, 3)), ((2, 3), (2, 2)), ((0, 1), (1, 1)), ((1, 1), (0, 1)), ((3, 2), (3, 3)), ((3, 3), (3, 2)), ((0, 2), (0, 3)), ((0, 3), (0, 2)), ((1, 0), (2, 0)), ((2, 0), (1, 0)), ((1, 3), (2, 3)), ((2, 3), (1, 3)), ((3, 0), (3, 1)), ((3, 1), (3, 0)), ((2, 0), (2, 1)), ((2, 1), (2, 0)), ((3, 1), (3, 2)), ((3, 2), (3, 1)), ((0, 1), (0, 2)), ((0, 2), (0, 1)), ((0, 0), (0, 1)), ((0, 1), (0, 0)), ((2, 3), (3, 3)), ((3, 3), (2, 3)), ((1, 2), (1, 3)), ((1, 3), (1, 2))]",3,3,2.9474,5,12,1
01,3,33,16,1,1,"[((1, 2), (2, 2)), ((2, 2), (1, 2)), ((0, 3), (1, 3)), ((1, 3), (0, 3)), ((2, 2), (2, 3)), ((2, 3), (2, 2)), ((0, 1), (1, 1)), ((1, 1), (0, 1)), ((0, 0), (1, 0)), ((1, 0), (0, 0)), ((1, 1), (1, 2)), ((1, 2), (1, 1)), ((3, 0), (3, 1)), ((3, 1), (3, 0)), ((0, 2), (0, 3)), ((0, 3), (0, 2)), ((2, 2), (3, 2)), ((3, 2), (2, 2)), ((2, 1), (2, 2)), ((2, 2), (2, 1)), ((2, 0), (2, 1)), ((2, 1), (2, 0)), ((1, 0), (1, 1)), ((1, 1), (1, 0)), ((0, 0), (0, 1)), ((0, 1), (0, 0)), ((2, 1), (3, 1)), ((3, 1), (2, 1)), ((0, 1), (0, 2)), ((0, 2), (0, 1)), ((2, 3), (3, 3)), ((3, 3), (2, 3))]",2,2,2.0788,8,9,1
01,3,34,17,2,1,"[((0, 1), (0, 2)), ((0, 2), (0, 1)), ((1, 1), (1, 2)), ((1, 2), (1, 1)), ((0, 0), (1, 0)), ((1, 0), (0, 0)), ((2, 3), (3, 3)), ((3, 3), (2, 3)), ((1, 2), (1, 3)), ((1, 3), (1, 2)), ((1, 0), (1, 1)), ((1, 1), (1, 0)), ((2, 0), (2, 1)), ((2, 1), (2, 0)), ((2, 2), (2, 3)), ((2, 3), (2, 2)), ((0, 2), (1, 2)), ((1, 2), (0, 2)), ((2, 2), (3, 2)), ((3, 2), (2, 2)), ((0, 2), (0, 3)), ((0, 3), (0, 2)), ((1, 2), (2, 2)), ((2, 2), (1, 2)), ((2, 0), (3, 0)), ((3, 0), (2, 0)), ((3, 1), (3, 2)), ((3, 2), (3, 1)), ((0, 0), (0, 1)), ((0, 1), (0, 0)), ((2, 1), (2, 2)), ((2, 2), (2, 1)), ((1, 0), (2, 0)), ((2, 0), (1, 0))]",4,4,3.0779,2,15,1
01,3,35,17,2,1,"[((2, 3), (3, 3)), ((3, 3), (2, 3)), ((2, 0), (2, 1)), ((2, 1), (2, 0)), ((1, 2), (2, 2)), ((2, 2), (1, 2)), ((1, 2), (1, 3)), ((1, 3), (1, 2)), ((0, 3), (1, 3)), ((1, 3), (0, 3)), ((0, 0), (1, 0)), ((1, 0), (0, 0)), ((0, 0), (0, 1)), ((0, 1), (0, 0)), ((2, 0), (3, 0)), ((3, 0), (2, 0)), ((1, 0), (2, 0)), ((2, 0), (1, 0)), ((3, 2), (3, 3)), ((3, 3), (3, 2)), ((1, 3), (2, 3)), ((2, 3), (1, 3)), ((2, 1), (2, 2)), ((2, 2), (2, 1)), ((2, 2), (3, 2)), ((3, 2), (2, 2)), ((0, 2), (1, 2)), ((1, 2), (0, 2)), ((2, 2), (2, 3)), ((2, 3), (2, 2)), ((0, 1), (1, 1)), ((1, 1), (0, 1)), ((3, 1), (3, 2)), ((3, 2), (3, 1))]",5,5,3.6485,2,15,1
01,3,36,17,2,1,"[((0, 2), (0, 3)), ((0, 3), (0, 2)), ((2, 3), (3, 3)), ((3, 3), (2, 3)), ((0, 2), (1, 2)), ((1, 2), (0, 2)), ((1, 3), (2, 3)), ((2, 3), (1, 3)), ((3, 2), (3, 3)), ((3, 3), (3, 2)), ((2, 1), (3, 1)), ((3, 1), (2, 1)), ((0, 1), (0, 2)), ((0, 2), (0, 1)), ((2, 0), (3, 0)), ((3, 0), (2, 0)), ((2, 1), (2, 2)), ((2, 2), (2, 1)), ((3, 1), (3, 2)), ((3, 2), (3, 1)), ((0, 3), (1, 3)), ((1, 3), (0, 3)), ((1, 0), (2, 0)), ((2, 0), (1, 0)), ((0, 0), (0, 1)), ((0, 1), (0, 0)), ((3, 0), (3, 1)), ((3, 1), (3, 0)), ((2, 2), (3, 2)), ((3, 2), (2, 2)), ((1, 1), (2, 1)), ((2, 1), (1, 1)), ((2, 0), (2, 1)), ((2, 1), (2, 0))]",1,4,2.4799,2,15,0
01,3,37,17,2,1,"[((3, 2), (3, 3)), ((3, 3), (3, 2)), ((0, 2), (0, 3)), ((0, 3), (0, 2)), ((1, 2), (1, 3)), ((1, 3), (1, 2)), ((0, 0), (0, 1)), ((0, 1), (0, 0)), ((0, 1), (1, 1)), ((1, 1), (0, 1)), ((1, 3), (2, 3)), ((2, 3), (1, 3)), ((2, 3), (3, 3)), ((3, 3), (2, 3)), ((0, 2), (1, 2)), ((1, 2), (0, 2)), ((1, 1), (2, 1)), ((2, 1), (1, 1)), ((2, 0), (3, 0)), ((3, 0), (2, 0)), ((1, 2), (2, 2)), ((2, 2), (1, 2)), ((0, 0), (1, 0)), ((1, 0), (0, 0)), ((3, 0), (3, 1)), ((3, 1), (3, 0)), ((2, 1), (3, 1)), ((3, 1), (2, 1)), ((2, 1), (2, 2)), ((2, 2), (2, 1)), ((2, 0), (2, 1)), ((2, 1), (2, 0)), ((0, 3), (1, 3)), ((1, 3), (0, 3))]",6,4,3.3317,15,2,0
