pid,block,trial,start,end,edge_count,cyclomatic,stim_time,edges,n_paths,response,rt
995,practice,1,"(3, 1)","(0, 2)",18,3,3,"[((1, 1), (2, 1)), ((2, 1), (1, 1)), ((2, 1), (2, 2)), ((2, 2), (2, 1)), ((0, 1), (1, 1)), ((1, 1), (0, 1)), ((2, 1), (3, 1)), ((3, 1), (2, 1)), ((0, 1), (0, 2)), ((0, 2), (0, 1)), ((0, 2), (0, 3)), ((0, 3), (0, 2)), ((1, 1), (1, 2)), ((1, 2), (1, 1)), ((0, 3), (1, 3)), ((1, 3), (0, 3)), ((1, 0), (2, 0)), ((2, 0), (1, 0)), ((2, 0), (3, 0)), ((3, 0), (2, 0)), ((1, 3), (2, 3)), ((2, 3), (1, 3)), ((1, 2), (2, 2)), ((2, 2), (1, 2)), ((0, 0), (0, 1)), ((0, 1), (0, 0)), ((2, 3), (3, 3)), ((3, 3), (2, 3)), ((3, 2), (3, 3)), ((3, 3), (3, 2)), ((1, 2), (1, 3)), ((1, 3), (1, 2)), ((0, 2), (1, 2)), ((1, 2), (0, 2)), ((1, 0), (1, 1)), ((1, 1), (1, 0))]",6,,
995,practice,2,"(0, 1)","(3, 2)",18,3,3,"[((0, 0), (0, 1)), ((0, 1), (0, 0)), ((0, 3), (1, 3)), ((1, 3), (0, 3)), ((2, 2), (2, 3)), ((2, 3), (2, 2)), ((3, 1), (3, 2)), ((3, 2), (3, 1)), ((1, 1), (2, 1)), ((2, 1), (1, 1)), ((3, 0), (3, 1)), ((3, 1), (3, 0)), ((1, 0), (2, 0)), ((2, 0), (1, 0)), ((2, 3), (3, 3)), ((3, 3), (2, 3)), ((2, 0), (3, 0)), ((3, 0), (2, 0)), ((1, 2), (1, 3)), ((1, 3), (1, 2)), ((1, 2), (2, 2)), ((2, 2), (1, 2)), ((0, 2), (0, 3)), ((0, 3), (0, 2)), ((1, 3), (2, 3)), ((2, 3), (1, 3)), ((2, 1), (3, 1)), ((3, 1), (2, 1)), ((0, 0), (1, 0)), ((1, 0), (0, 0)), ((0, 2), (1, 2)), ((1, 2), (0, 2)), ((2, 2), (3, 2)), ((3, 2), (2, 2)), ((1, 1), (1, 2)), ((1, 2), (1, 1))]",6,4,4.0142
995,practice,3,"(0, 2)","(3, 1)",18,3,3,"[((3, 1), (3, 2)), ((3, 2), (3, 1)), ((0, 2), (1, 2)), ((1, 2), (0, 2)), ((2, 1), (2, 2)), ((2, 2), (2, 1)), ((0, 3), (1, 3)), ((1, 3), (0, 3)), ((2, 0), (3, 0)), ((3, 0), (2, 0)), ((3, 2), (3, 3)), ((3, 3), (3, 2)), ((1, 2), (2, 2)), ((2, 2), (1, 2)), ((3, 0), (3, 1)), ((3, 1), (3, 0)), ((2, 0), (2, 1)), ((2, 1), (2, 0)), ((0, 2), (0, 3)), ((0, 3), (0, 2)), ((0, 1), (1, 1)), ((1, 1), (0, 1)), ((2, 1), (3, 1)), ((3, 1), (2, 1)), ((1, 0), (1, 1)), ((1, 1), (1, 0)), ((0, 1), (0, 2)), ((0, 2), (0, 1)), ((0, 0), (1, 0)), ((1, 0), (0, 0)), ((2, 3), (3, 3)), ((3, 3), (2, 3)), ((2, 2), (3, 2)), ((3, 2), (2, 2)), ((1, 1), (1, 2)), ((1, 2), (1, 1))]",6,4,2.7454
995,practice,4,"(0, 1)","(3, 2)",17,2,3,"[((2, 0), (2, 1)), ((2, 1), (2, 0)), ((2, 1), (2, 2)), ((2, 2), (2, 1)), ((0, 1), (0, 2)), ((0, 2), (0, 1)), ((0, 2), (1, 2)), ((1, 2), (0, 2)), ((0, 3), (1, 3)), ((1, 3), (0, 3)), ((1, 3), (2, 3)), ((2, 3), (1, 3)), ((2, 1), (3, 1)), ((3, 1), (2, 1)), ((3, 2), (3, 3)), ((3, 3), (3, 2)), ((0, 0), (1, 0)), ((1, 0), (0, 0)), ((2, 0), (3, 0)), ((3, 0), (2, 0)), ((0, 1), (1, 1)), ((1, 1), (0, 1)), ((3, 1), (3, 2)), ((3, 2), (3, 1)), ((0, 2), (0, 3)), ((0, 3), (0, 2)), ((2, 2), (3, 2)), ((3, 2), (2, 2)), ((1, 2), (2, 2)), ((2, 2), (1, 2)), ((1, 0), (1, 1)), ((1, 1), (1, 0)), ((3, 0), (3, 1)), ((3, 1), (3, 0))]",3,4,2.1485
995,practice,5,"(3, 1)","(0, 2)",17,2,3,"[((1, 2), (1, 3)), ((1, 3), (1, 2)), ((3, 1), (3, 2)), ((3, 2), (3, 1)), ((0, 0), (0, 1)), ((0, 1), (0, 0)), ((0, 0), (1, 0)), ((1, 0), (0, 0)), ((0, 1), (0, 2)), ((0, 2), (0, 1)), ((2, 0), (3, 0)), ((3, 0), (2, 0)), ((0, 2), (0, 3)), ((0, 3), (0, 2)), ((1, 3), (2, 3)), ((2, 3), (1, 3)), ((1, 0), (1, 1)), ((1, 1), (1, 0)), ((3, 2), (3, 3)), ((3, 3), (3, 2)), ((0, 2), (1, 2)), ((1, 2), (0, 2)), ((1, 2), (2, 2)), ((2, 2), (1, 2)), ((1, 0), (2, 0)), ((2, 0), (1, 0)), ((2, 2), (3, 2)), ((3, 2), (2, 2)), ((3, 0), (3, 1)), ((3, 1), (3, 0)), ((0, 1), (1, 1)), ((1, 1), (0, 1)), ((2, 1), (3, 1)), ((3, 1), (2, 1))]",3,4,1.1589
995,practice,6,"(1, 3)","(2, 0)",16,1,3,"[((3, 0), (3, 1)), ((3, 1), (3, 0)), ((2, 2), (2, 3)), ((2, 3), (2, 2)), ((1, 0), (2, 0)), ((2, 0), (1, 0)), ((0, 0), (0, 1)), ((0, 1), (0, 0)), ((1, 0), (1, 1)), ((1, 1), (1, 0)), ((2, 1), (3, 1)), ((3, 1), (2, 1)), ((2, 0), (2, 1)), ((2, 1), (2, 0)), ((1, 2), (2, 2)), ((2, 2), (1, 2)), ((0, 2), (1, 2)), ((1, 2), (0, 2)), ((0, 0), (1, 0)), ((1, 0), (0, 0)), ((1, 1), (1, 2)), ((1, 2), (1, 1)), ((2, 3), (3, 3)), ((3, 3), (2, 3)), ((2, 2), (3, 2)), ((3, 2), (2, 2)), ((0, 2), (0, 3)), ((0, 3), (0, 2)), ((0, 1), (0, 2)), ((0, 2), (0, 1)), ((0, 3), (1, 3)), ((1, 3), (0, 3))]",2,2,1.1305
995,practice,7,"(1, 0)","(2, 3)",17,2,3,"[((2, 2), (3, 2)), ((3, 2), (2, 2)), ((1, 2), (1, 3)), ((1, 3), (1, 2)), ((0, 2), (1, 2)), ((1, 2), (0, 2)), ((3, 0), (3, 1)), ((3, 1), (3, 0)), ((1, 0), (2, 0)), ((2, 0), (1, 0)), ((0, 2), (0, 3)), ((0, 3), (0, 2)), ((1, 2), (2, 2)), ((2, 2), (1, 2)), ((3, 1), (3, 2)), ((3, 2), (3, 1)), ((1, 0), (1, 1)), ((1, 1), (1, 0)), ((1, 1), (2, 1)), ((2, 1), (1, 1)), ((2, 0), (3, 0)), ((3, 0), (2, 0)), ((0, 1), (0, 2)), ((0, 2), (0, 1)), ((1, 3), (2, 3)), ((2, 3), (1, 3)), ((0, 0), (1, 0)), ((1, 0), (0, 0)), ((3, 2), (3, 3)), ((3, 3), (3, 2)), ((1, 1), (1, 2)), ((1, 2), (1, 1)), ((0, 1), (1, 1)), ((1, 1), (0, 1))]",5,3,2.58
995,practice,8,"(2, 3)","(1, 0)",17,2,3,"[((0, 1), (0, 2)), ((0, 2), (0, 1)), ((1, 1), (1, 2)), ((1, 2), (1, 1)), ((0, 0), (1, 0)), ((1, 0), (0, 0)), ((2, 2), (2, 3)), ((2, 3), (2, 2)), ((3, 1), (3, 2)), ((3, 2), (3, 1)), ((1, 1), (2, 1)), ((2, 1), (1, 1)), ((3, 2), (3, 3)), ((3, 3), (3, 2)), ((2, 0), (3, 0)), ((3, 0), (2, 0)), ((1, 0), (1, 1)), ((1, 1), (1, 0)), ((1, 2), (2, 2)), ((2, 2), (1, 2)), ((0, 3), (1, 3)), ((1, 3), (0, 3)), ((0, 2), (0, 3)), ((0, 3), (0, 2)), ((3, 0), (3, 1)), ((3, 1), (3, 0)), ((0, 0), (0, 1)), ((0, 1), (0, 0)), ((1, 0), (2, 0)), ((2, 0), (1, 0)), ((2, 2), (3, 2)), ((3, 2), (2, 2)), ((1, 3), (2, 3)), ((2, 3), (1, 3))]",3,4,0.9149
995,practice,9,"(0, 1)","(3, 2)",17,2,3,"[((1, 0), (2, 0)), ((2, 0), (1, 0)), ((3, 0), (3, 1)), ((3, 1), (3, 0)), ((1, 1), (2, 1)), ((2, 1), (1, 1)), ((0, 1), (1, 1)), ((1, 1), (0, 1)), ((0, 2), (0, 3)), ((0, 3), (0, 2)), ((2, 2), (3, 2)), ((3, 2), (2, 2)), ((0, 0), (1, 0)), ((1, 0), (0, 0)), ((3, 2), (3, 3)), ((3, 3), (3, 2)), ((3, 1), (3, 2)), ((3, 2), (3, 1)), ((0, 1), (0, 2)), ((0, 2), (0, 1)), ((0, 3), (1, 3)), ((1, 3), (0, 3)), ((2, 1), (2, 2)), ((2, 2), (2, 1)), ((2, 0), (2, 1)), ((2, 1), (2, 0)), ((2, 0), (3, 0)), ((3, 0), (2, 0)), ((2, 3), (3, 3)), ((3, 3), (2, 3)), ((1, 2), (2, 2)), ((2, 2), (1, 2)), ((1, 1), (1, 2)), ((1, 2), (1, 1))]",4,3,1.3797
995,practice,10,"(0, 2)","(3, 1)",15,0,3,"[((1, 1), (2, 1)), ((2, 1), (1, 1)), ((1, 2), (1, 3)), ((1, 3), (1, 2)), ((2, 0), (3, 0)), ((3, 0), (2, 0)), ((1, 0), (1, 1)), ((1, 1), (1, 0)), ((2, 3), (3, 3)), ((3, 3), (2, 3)), ((3, 2), (3, 3)), ((3, 3), (3, 2)), ((0, 2), (1, 2)), ((1, 2), (0, 2)), ((0, 0), (0, 1)), ((0, 1), (0, 0)), ((0, 3), (1, 3)), ((1, 3), (0, 3)), ((0, 0), (1, 0)), ((1, 0), (0, 0)), ((1, 2), (2, 2)), ((2, 2), (1, 2)), ((3, 1), (3, 2)), ((3, 2), (3, 1)), ((2, 2), (3, 2)), ((3, 2), (2, 2)), ((2, 1), (3, 1)), ((3, 1), (2, 1)), ((3, 0), (3, 1)), ((3, 1), (3, 0))]",1,1,0.4484
995,1,1,"(0, 2)","(3, 1)",15,0,5,"[((0, 2), (0, 3)), ((0, 3), (0, 2)), ((2, 1), (2, 2)), ((2, 2), (2, 1)), ((2, 0), (3, 0)), ((3, 0), (2, 0)), ((2, 3), (3, 3)), ((3, 3), (2, 3)), ((1, 3), (2, 3)), ((2, 3), (1, 3)), ((0, 1), (1, 1)), ((1, 1), (0, 1)), ((0, 0), (0, 1)), ((0, 1), (0, 0)), ((3, 2), (3, 3)), ((3, 3), (3, 2)), ((1, 0), (2, 0)), ((2, 0), (1, 0)), ((1, 1), (1, 2)), ((1, 2), (1, 1)), ((0, 1), (0, 2)), ((0, 2), (0, 1)), ((3, 0), (3, 1)), ((3, 1), (3, 0)), ((2, 1), (3, 1)), ((3, 1), (2, 1)), ((2, 2), (2, 3)), ((2, 3), (2, 2)), ((1, 1), (2, 1)), ((2, 1), (1, 1))]",1,1,0.8816
995,1,2,"(1, 3)","(2, 0)",16,1,5,"[((1, 0), (2, 0)), ((2, 0), (1, 0)), ((3, 2), (3, 3)), ((3, 3), (3, 2)), ((1, 3), (2, 3)), ((2, 3), (1, 3)), ((0, 2), (1, 2)), ((1, 2), (0, 2)), ((2, 1), (2, 2)), ((2, 2), (2, 1)), ((2, 3), (3, 3)), ((3, 3), (2, 3)), ((1, 1), (1, 2)), ((1, 2), (1, 1)), ((2, 2), (2, 3)), ((2, 3), (2, 2)), ((0, 3), (1, 3)), ((1, 3), (0, 3)), ((1, 2), (2, 2)), ((2, 2), (1, 2)), ((2, 2), (3, 2)), ((3, 2), (2, 2)), ((0, 0), (1, 0)), ((1, 0), (0, 0)), ((0, 1), (0, 2)), ((0, 2), (0, 1)), ((3, 1), (3, 2)), ((3, 2), (3, 1)), ((0, 0), (0, 1)), ((0, 1), (0, 0)), ((3, 0), (3, 1)), ((3, 1), (3, 0))]",2,2,0.7468
995,1,3,"(1, 3)","(2, 0)",18,3,5,"[((0, 1), (1, 1)), ((1, 1), (0, 1)), ((0, 2), (0, 3)), ((0, 3), (0, 2)), ((0, 0), (0, 1)), ((0, 1), (0, 0)), ((2, 0), (2, 1)), ((2, 1), (2, 0)), ((3, 0), (3, 1)), ((3, 1), (3, 0)), ((2, 1), (3, 1)), ((3, 1), (2, 1)), ((3, 2), (3, 3)), ((3, 3), (3, 2)), ((1, 3), (2, 3)), ((2, 3), (1, 3)), ((0, 3), (1, 3)), ((1, 3), (0, 3)), ((2, 3), (3, 3)), ((3, 3), (2, 3)), ((1, 2), (2, 2)), ((2, 2), (1, 2)), ((1, 0), (2, 0)), ((2, 0), (1, 0)), ((1, 0), (1, 1)), ((1, 1), (1, 0)), ((2, 0), (3, 0)), ((3, 0), (2, 0)), ((0, 0), (1, 0)), ((1, 0), (0, 0)), ((0, 1), (0, 2)), ((0, 2), (0, 1)), ((2, 1), (2, 2)), ((2, 2), (2, 1)), ((1, 1), (1, 2)), ((1, 2), (1, 1))]",6,5,1.8317
995,1,4,"(0, 2)","(3, 1)",17,2,5,"[((3, 2), (3, 3)), ((3, 3), (3, 2)), ((0, 3), (1, 3)), ((1, 3), (0, 3)), ((0, 0), (0, 1)), ((0, 1), (0, 0)), ((2, 2), (2, 3)), ((2, 3), (2, 2)), ((2, 2), (3, 2)), ((3, 2), (2, 2)), ((1, 3), (2, 3)), ((2, 3), (1, 3)), ((1, 1), (2, 1)), ((2, 1), (1, 1)), ((1, 2), (1, 3)), ((1, 3), (1, 2)), ((1, 2), (2, 2)), ((2, 2), (1, 2)), ((2, 1), (3, 1)), ((3, 1), (2, 1)), ((0, 0), (1, 0)), ((1, 0), (0, 0)), ((1, 1), (1, 2)), ((1, 2), (1, 1)), ((2, 0), (2, 1)), ((2, 1), (2, 0)), ((3, 0), (3, 1)), ((3, 1), (3, 0)), ((3, 1), (3, 2)), ((3, 2), (3, 1)), ((1, 0), (2, 0)), ((2, 0), (1, 0)), ((0, 1), (0, 2)), ((0, 2), (0, 1))]",3,3,3.4132
995,1,5,"(0, 1)","(3, 2)",15,0,5,"[((3, 1), (3, 2)), ((3, 2), (3, 1)), ((1, 2), (1, 3)), ((1, 3), (1, 2)), ((0, 0), (1, 0)), ((1, 0), (0, 0)), ((2, 2), (3, 2)), ((3, 2), (2, 2)), ((3, 2), (3, 3)), ((3, 3), (3, 2)), ((1, 0), (2, 0)), ((2, 0), (1, 0)), ((0, 0), (0, 1)), ((0, 1), (0, 0)), ((1, 1), (2, 1)), ((2, 1), (1, 1)), ((0, 2), (0, 3)), ((0, 3), (0, 2)), ((1, 2), (2, 2)), ((2, 2), (1, 2)), ((2, 1), (3, 1)), ((3, 1), (2, 1)), ((0, 1), (0, 2)), ((0, 2), (0, 1)), ((0, 2), (1, 2)), ((1, 2), (0, 2)), ((2, 0), (3, 0)), ((3, 0), (2, 0)), ((2, 3), (3, 3)), ((3, 3), (2, 3))]",1,1,0.3648
995,1,6,"(1, 0)","(2, 3)",16,1,5,"[((1, 3), (2, 3)), ((2, 3), (1, 3)), ((2, 2), (2, 3)), ((2, 3), (2, 2)), ((1, 2), (2, 2)), ((2, 2), (1, 2)), ((1, 1), (1, 2)), ((1, 2), (1, 1)), ((3, 1), (3, 2)), ((3, 2), (3, 1)), ((0, 2), (1, 2)), ((1, 2), (0, 2)), ((0, 0), (1, 0)), ((1, 0), (0, 0)), ((0, 2), (0, 3)), ((0, 3), (0, 2)), ((1, 0), (1, 1)), ((1, 1), (1, 0)), ((2, 0), (2, 1)), ((2, 1), (2, 0)), ((2, 2), (3, 2)), ((3, 2), (2, 2)), ((2, 0), (3, 0)), ((3, 0), (2, 0)), ((2, 1), (3, 1)), ((3, 1), (2, 1)), ((0, 1), (0, 2)), ((0, 2), (0, 1)), ((1, 2), (1, 3)), ((1, 3), (1, 2)), ((2, 3), (3, 3)), ((3, 3), (2, 3))]",2,2,0.4298
995,1,7,"(0, 2)","(3, 1)",17,2,5,"[((2, 2), (2, 3)), ((2, 3), (2, 2)), ((0, 3), (1, 3)), ((1, 3), (0, 3)), ((0, 2), (1, 2)), ((1, 2), (0, 2)), ((2, 3), (3, 3)), ((3, 3), (2, 3)), ((1, 0), (2, 0)), ((2, 0), (1, 0)), ((3, 1), (3, 2)), ((3, 2), (3, 1)), ((1, 3), (2, 3)), ((2, 3), (1, 3)), ((0, 1), (0, 2)), ((0, 2), (0, 1)), ((0, 1), (1, 1)), ((1, 1), (0, 1)), ((2, 1), (3, 1)), ((3, 1), (2, 1)), ((0, 2), (0, 3)), ((0, 3), (0, 2)), ((2, 0), (2, 1)), ((2, 1), (2, 0)), ((1, 1), (2, 1)), ((2, 1), (1, 1)), ((2, 2), (3, 2)), ((3, 2), (2, 2)), ((0, 0), (0, 1)), ((0, 1), (0, 0)), ((2, 0), (3, 0)), ((3, 0), (2, 0)), ((1, 0), (1, 1)), ((1, 1), (1, 0))]",3,3,0.4316
995,1,8,"(3, 1)","(0, 2)",17,2,5,"[((3, 2), (3, 3)), ((3, 3), (3, 2)), ((1, 1), (2, 1)), ((2, 1), (1, 1)), ((2, 1), (2, 2)), ((2, 2), (2, 1)), ((2, 2), (2, 3)), ((2, 3), (2, 2)), ((0, 0), (1, 0)), ((1, 0), (0, 0)), ((1, 0), (1, 1)), ((1, 1), (1, 0)), ((0, 3), (1, 3)), ((1, 3), (0, 3)), ((0, 0), (0, 1)), ((0, 1), (0, 0)), ((1, 0), (2, 0)), ((2, 0), (1, 0)), ((2, 3), (3, 3)), ((3, 3), (2, 3)), ((0, 2), (1, 2)), ((1, 2), (0, 2)), ((1, 3), (2, 3)), ((2, 3), (1, 3)), ((1, 2), (2, 2)), ((2, 2), (1, 2)), ((1, 2), (1, 3)), ((1, 3), (1, 2)), ((3, 0), (3, 1)), ((3, 1), (3, 0)), ((2, 0), (3, 0)), ((3, 0), (2, 0)), ((0, 1), (1, 1)), ((1, 1), (0, 1))]",4,4,3.2799
995,1,9,"(3, 1)","(0, 2)",17,2,5,"[((0, 1), (0, 2)), ((0, 2), (0, 1)), ((1, 2), (1, 3)), ((1, 3), (1, 2)), ((2, 0), (3, 0)), ((3, 0), (2, 0)), ((3, 2), (3, 3)), ((3, 3), (3, 2)), ((0, 2), (1, 2)), ((1, 2), (0, 2)), ((3, 1), (3, 2)), ((3, 2), (3, 1)), ((2, 1), (3, 1)), ((3, 1), (2, 1)), ((1, 1), (1, 2)), ((1, 2), (1, 1)), ((1, 0), (1, 1)), ((1, 1), (1, 0)), ((0, 0), (0, 1)), ((0, 1), (0, 0)), ((2, 2), (2, 3)), ((2, 3), (2, 2)), ((2, 1), (2, 2)), ((2, 2), (2, 1)), ((0, 3), (1, 3)), ((1, 3), (0, 3)), ((1, 0), (2, 0)), ((2, 0), (1, 0)), ((0, 2), (0, 3)), ((0, 3), (0, 2)), ((2, 0), (2, 1)), ((2, 1), (2, 0)), ((0, 0), (1, 0)), ((1, 0), (0, 0))]",3,3,0.5151
995,1,10,"(3, 1)","(0, 2)",17,2,5,"[((0, 2), (1, 2)), ((1, 2), (0, 2)), ((0, 1), (1, 1)), ((1, 1), (0, 1)), ((1, 0), (1, 1)), ((1, 1), (1, 0)), ((1, 2), (1, 3)), ((1, 3), (1, 2)), ((0, 3), (1, 3)), ((1, 3), (0, 3)), ((0, 0), (0, 1)), ((0, 1), (0, 0)), ((3, 0), (3, 1)), ((3, 1), (3, 0)), ((1, 0), (2, 0)), ((2, 0), (1, 0)), ((1, 2), (2, 2)), ((2, 2), (1, 2)), ((1, 3), (2, 3)), ((2, 3), (1, 3)), ((0, 1), (0, 2)), ((0, 2), (0, 1)), ((2, 2), (2, 3)), ((2, 3), (2, 2)), ((3, 2), (3, 3)), ((3, 3), (3, 2)), ((2, 1), (3, 1)), ((3, 1), (2, 1)), ((0, 0), (1, 0)), ((1, 0), (0, 0)), ((3, 1), (3, 2)), ((3, 2), (3, 1)), ((2, 0), (3, 0)), ((3, 0), (2, 0))]",2,2,0.3293
995,1,11,"(2, 3)","(1, 0)",16,1,5,"[((2, 1), (3, 1)), ((3, 1), (2, 1)), ((0, 1), (0, 2)), ((0, 2), (0, 1)), ((2, 0), (3, 0)), ((3, 0), (2, 0)), ((1, 2), (1, 3)), ((1, 3), (1, 2)), ((2, 2), (3, 2)), ((3, 2), (2, 2)), ((0, 0), (0, 1)), ((0, 1), (0, 0)), ((0, 2), (1, 2)), ((1, 2), (0, 2)), ((0, 1), (1, 1)), ((1, 1), (0, 1)), ((0, 3), (1, 3)), ((1, 3), (0, 3)), ((3, 2), (3, 3)), ((3, 3), (3, 2)), ((1, 1), (1, 2)), ((1, 2), (1, 1)), ((1, 0), (2, 0)), ((2, 0), (1, 0)), ((2, 0), (2, 1)), ((2, 1), (2, 0)), ((3, 1), (3, 2)), ((3, 2), (3, 1)), ((2, 2), (2, 3)), ((2, 3), (2, 2)), ((0, 0), (1, 0)), ((1, 0), (0, 0))]",1,1,0.648
995,1,12,"(3, 2)","(0, 1)",18,3,5,"[((0, 3), (1, 3)), ((1, 3), (0, 3)), ((2, 0), (2, 1)), ((2, 1), (2, 0)), ((0, 0), (1, 0)), ((1, 0), (0, 0)), ((2, 0), (3, 0)), ((3, 0), (2, 0)), ((2, 1), (3, 1)), ((3, 1), (2, 1)), ((0, 0), (0, 1)), ((0, 1), (0, 0)), ((1, 2), (1, 3)), ((1, 3), (1, 2)), ((3, 1), (3, 2)), ((3, 2), (3, 1)), ((2, 2), (3, 2)), ((3, 2), (2, 2)), ((0, 2), (1, 2)), ((1, 2), (0, 2)), ((2, 3), (3, 3)), ((3, 3), (2, 3)), ((0, 2), (0, 3)), ((0, 3), (0, 2)), ((0, 1), (1, 1)), ((1, 1), (0, 1)), ((1, 3), (2, 3)), ((2, 3), (1, 3)), ((3, 0), (3, 1)), ((3, 1), (3, 0)), ((1, 0), (2, 0)), ((2, 0), (1, 0)), ((3, 2), (3, 3)), ((3, 3), (3, 2)), ((2, 2), (2, 3)), ((2, 3), (2, 2))]",6,2,0.3306
995,1,13,"(2, 0)","(1, 3)",19,4,5,"[((3, 0), (3, 1)), ((3, 1), (3, 0)), ((0, 0), (1, 0)), ((1, 0), (0, 0)), ((0, 2), (1, 2)), ((1, 2), (0, 2)), ((1, 1), (1, 2)), ((1, 2), (1, 1)), ((2, 0), (2, 1)), ((2, 1), (2, 0)), ((2, 0), (3, 0)), ((3, 0), (2, 0)), ((2, 2), (2, 3)), ((2, 3), (2, 2)), ((0, 1), (1, 1)), ((1, 1), (0, 1)), ((3, 1), (3, 2)), ((3, 2), (3, 1)), ((3, 2), (3, 3)), ((3, 3), (3, 2)), ((2, 1), (2, 2)), ((2, 2), (2, 1)), ((1, 3), (2, 3)), ((2, 3), (1, 3)), ((0, 0), (0, 1)), ((0, 1), (0, 0)), ((1, 0), (1, 1)), ((1, 1), (1, 0)), ((0, 2), (0, 3)), ((0, 3), (0, 2)), ((2, 2), (3, 2)), ((3, 2), (2, 2)), ((1, 2), (2, 2)), ((2, 2), (1, 2)), ((1, 2), (1, 3)), ((1, 3), (1, 2)), ((0, 3), (1, 3)), ((1, 3), (0, 3))]",6,4,3.6983
995,1,14,"(1, 0)","(2, 3)",17,2,5,"[((1, 2), (1, 3)), ((1, 3), (1, 2)), ((0, 3), (1, 3)), ((1, 3), (0, 3)), ((1, 3), (2, 3)), ((2, 3), (1, 3)), ((0, 1), (1, 1)), ((1, 1), (0, 1)), ((3, 1), (3, 2)), ((3, 2), (3, 1)), ((0, 0), (0, 1)), ((0, 1), (0, 0)), ((3, 2), (3, 3)), ((3, 3), (3, 2)), ((0, 2), (0, 3)), ((0, 3), (0, 2)), ((1, 1), (1, 2)), ((1, 2), (1, 1)), ((1, 1), (2, 1)), ((2, 1), (1, 1)), ((1, 0), (2, 0)), ((2, 0), (1, 0)), ((1, 2), (2, 2)), ((2, 2), (1, 2)), ((2, 0), (3, 0)), ((3, 0), (2, 0)), ((0, 0), (1, 0)), ((1, 0), (0, 0)), ((2, 2), (3, 2)), ((3, 2), (2, 2)), ((0, 2), (1, 2)), ((1, 2), (0, 2)), ((2, 1), (2, 2)), ((2, 2), (2, 1))]",4,3,1.095
995,1,15,"(1, 0)","(2, 3)",17,2,5,"[((0, 2), (0, 3)), ((0, 3), (0, 2)), ((3, 1), (3, 2)), ((3, 2), (3, 1)), ((2, 3), (3, 3)), ((3, 3), (2, 3)), ((3, 0), (3, 1)), ((3, 1), (3, 0)), ((0, 0), (1, 0)), ((1, 0), (0, 0)), ((0, 2), (1, 2)), ((1, 2), (0, 2)), ((0, 0), (0, 1)), ((0, 1), (0, 0)), ((1, 3), (2, 3)), ((2, 3), (1, 3)), ((0, 3), (1, 3)), ((1, 3), (0, 3)), ((2, 2), (3, 2)), ((3, 2), (2, 2)), ((2, 0), (3, 0)), ((3, 0), (2, 0)), ((1, 2), (1, 3)), ((1, 3), (1, 2)), ((1, 0), (2, 0)), ((2, 0), (1, 0)), ((1, 1), (1, 2)), ((1, 2), (1, 1)), ((0, 1), (1, 1)), ((1, 1), (0, 1)), ((0, 1), (0, 2)), ((0, 2), (0, 1)), ((2, 1), (3, 1)), ((3, 1), (2, 1))]",4,4,2.2319
995,1,16,"(2, 3)","(1, 0)",17,2,5,"[((1, 1), (1, 2)), ((1, 2), (1, 1)), ((3, 1), (3, 2)), ((3, 2), (3, 1)), ((0, 2), (1, 2)), ((1, 2), (0, 2)), ((3, 0), (3, 1)), ((3, 1), (3, 0)), ((2, 1), (3, 1)), ((3, 1), (2, 1)), ((0, 2), (0, 3)), ((0, 3), (0, 2)), ((2, 2), (2, 3)), ((2, 3), (2, 2)), ((1, 2), (2, 2)), ((2, 2), (1, 2)), ((2, 3), (3, 3)), ((3, 3), (2, 3)), ((1, 2), (1, 3)), ((1, 3), (1, 2)), ((1, 1), (2, 1)), ((2, 1), (1, 1)), ((0, 0), (0, 1)), ((0, 1), (0, 0)), ((0, 1), (0, 2)), ((0, 2), (0, 1)), ((2, 0), (2, 1)), ((2, 1), (2, 0)), ((2, 0), (3, 0)), ((3, 0), (2, 0)), ((0, 0), (1, 0)), ((1, 0), (0, 0)), ((1, 3), (2, 3)), ((2, 3), (1, 3))]",2,1,0.3775
995,1,17,"(2, 3)","(1, 0)",18,3,5,"[((1, 1), (2, 1)), ((2, 1), (1, 1)), ((0, 2), (0, 3)), ((0, 3), (0, 2)), ((2, 2), (2, 3)), ((2, 3), (2, 2)), ((1, 2), (2, 2)), ((2, 2), (1, 2)), ((1, 2), (1, 3)), ((1, 3), (1, 2)), ((1, 3), (2, 3)), ((2, 3), (1, 3)), ((1, 1), (1, 2)), ((1, 2), (1, 1)), ((2, 3), (3, 3)), ((3, 3), (2, 3)), ((0, 3), (1, 3)), ((1, 3), (0, 3)), ((3, 1), (3, 2)), ((3, 2), (3, 1)), ((2, 1), (3, 1)), ((3, 1), (2, 1)), ((2, 0), (2, 1)), ((2, 1), (2, 0)), ((0, 0), (1, 0)), ((1, 0), (0, 0)), ((3, 0), (3, 1)), ((3, 1), (3, 0)), ((2, 0), (3, 0)), ((3, 0), (2, 0)), ((2, 2), (3, 2)), ((3, 2), (2, 2)), ((1, 0), (1, 1)), ((1, 1), (1, 0)), ((0, 1), (0, 2)), ((0, 2), (0, 1))]",6,5,1.1154
995,1,18,"(1, 0)","(2, 3)",16,1,5,"[((2, 1), (2, 2)), ((2, 2), (2, 1)), ((3, 2), (3, 3)), ((3, 3), (3, 2)), ((2, 2), (2, 3)), ((2, 3), (2, 2)), ((3, 0), (3, 1)), ((3, 1), (3, 0)), ((2, 0), (3, 0)), ((3, 0), (2, 0)), ((0, 3), (1, 3)), ((1, 3), (0, 3)), ((0, 2), (1, 2)), ((1, 2), (0, 2)), ((0, 0), (1, 0)), ((1, 0), (0, 0)), ((0, 1), (0, 2)), ((0, 2), (0, 1)), ((1, 3), (2, 3)), ((2, 3), (1, 3)), ((1, 1), (2, 1)), ((2, 1), (1, 1)), ((1, 2), (2, 2)), ((2, 2), (1, 2)), ((3, 1), (3, 2)), ((3, 2), (3, 1)), ((2, 3), (3, 3)), ((3, 3), (2, 3)), ((1, 0), (2, 0)), ((2, 0), (1, 0)), ((2, 1), (3, 1)), ((3, 1), (2, 1))]",2,2,0.4101
995,1,19,"(0, 2)","(3, 1)",18,3,5,"[((2, 3), (3, 3)), ((3, 3), (2, 3)), ((2, 1), (2, 2)), ((2, 2), (2, 1)), ((2, 1), (3, 1)), ((3, 1), (2, 1)), ((1, 1), (1, 2)), ((1, 2), (1, 1)), ((0, 0), (0, 1)), ((0, 1), (0, 0)), ((2, 0), (3, 0)), ((3, 0), (2, 0)), ((0, 2), (1, 2)), ((1, 2), (0, 2)), ((2, 2), (3, 2)), ((3, 2), (2, 2)), ((1, 3), (2, 3)), ((2, 3), (1, 3)), ((3, 0), (3, 1)), ((3, 1), (3, 0)), ((1, 1), (2, 1)), ((2, 1), (1, 1)), ((2, 2), (2, 3)), ((2, 3), (2, 2)), ((1, 0), (2, 0)), ((2, 0), (1, 0)), ((0, 2), (0, 3)), ((0, 3), (0, 2)), ((0, 0), (1, 0)), ((1, 0), (0, 0)), ((0, 1), (0, 2)), ((0, 2), (0, 1)), ((3, 2), (3, 3)), ((3, 3), (3, 2)), ((3, 1), (3, 2)), ((3, 2), (3, 1))]",4,4,0.7821
995,1,20,"(2, 3)","(1, 0)",17,2,5,"[((0, 0), (1, 0)), ((1, 0), (0, 0)), ((3, 2), (3, 3)), ((3, 3), (3, 2)), ((2, 2), (2, 3)), ((2, 3), (2, 2)), ((0, 1), (0, 2)), ((0, 2), (0, 1)), ((1, 1), (1, 2)), ((1, 2), (1, 1)), ((0, 2), (0, 3)), ((0, 3), (0, 2)), ((1, 1), (2, 1)), ((2, 1), (1, 1)), ((0, 2), (1, 2)), ((1, 2), (0, 2)), ((2, 0), (3, 0)), ((3, 0), (2, 0)), ((0, 0), (0, 1)), ((0, 1), (0, 0)), ((0, 3), (1, 3)), ((1, 3), (0, 3)), ((0, 1), (1, 1)), ((1, 1), (0, 1)), ((1, 0), (1, 1)), ((1, 1), (1, 0)), ((2, 1), (2, 2)), ((2, 2), (2, 1)), ((3, 0), (3, 1)), ((3, 1), (3, 0)), ((2, 0), (2, 1)), ((2, 1), (2, 0)), ((2, 2), (3, 2)), ((3, 2), (2, 2))]",5,3,0.564
995,1,21,"(1, 0)","(2, 3)",18,3,5,"[((2, 3), (3, 3)), ((3, 3), (2, 3)), ((0, 1), (0, 2)), ((0, 2), (0, 1)), ((3, 1), (3, 2)), ((3, 2), (3, 1)), ((0, 2), (1, 2)), ((1, 2), (0, 2)), ((0, 3), (1, 3)), ((1, 3), (0, 3)), ((2, 0), (2, 1)), ((2, 1), (2, 0)), ((3, 0), (3, 1)), ((3, 1), (3, 0)), ((0, 0), (1, 0)), ((1, 0), (0, 0)), ((1, 1), (2, 1)), ((2, 1), (1, 1)), ((2, 2), (3, 2)), ((3, 2), (2, 2)), ((0, 0), (0, 1)), ((0, 1), (0, 0)), ((2, 1), (3, 1)), ((3, 1), (2, 1)), ((2, 0), (3, 0)), ((3, 0), (2, 0)), ((1, 2), (2, 2)), ((2, 2), (1, 2)), ((1, 1), (1, 2)), ((1, 2), (1, 1)), ((0, 1), (1, 1)), ((1, 1), (0, 1)), ((3, 2), (3, 3)), ((3, 3), (3, 2)), ((1, 3), (2, 3)), ((2, 3), (1, 3))]",6,4,3.7317
995,1,22,"(3, 1)","(0, 2)",17,2,5,"[((0, 3), (1, 3)), ((1, 3), (0, 3)), ((0, 0), (1, 0)), ((1, 0), (0, 0)), ((3, 1), (3, 2)), ((3, 2), (3, 1)), ((0, 1), (0, 2)), ((0, 2), (0, 1)), ((0, 1), (1, 1)), ((1, 1), (0, 1)), ((2, 2), (3, 2)), ((3, 2), (2, 2)), ((2, 3), (3, 3)), ((3, 3), (2, 3)), ((1, 2), (1, 3)), ((1, 3), (1, 2)), ((1, 3), (2, 3)), ((2, 3), (1, 3)), ((0, 0), (0, 1)), ((0, 1), (0, 0)), ((2, 0), (2, 1)), ((2, 1), (2, 0)), ((2, 1), (3, 1)), ((3, 1), (2, 1)), ((1, 0), (1, 1)), ((1, 1), (1, 0)), ((0, 2), (1, 2)), ((1, 2), (0, 2)), ((2, 1), (2, 2)), ((2, 2), (2, 1)), ((3, 0), (3, 1)), ((3, 1), (3, 0)), ((1, 2), (2, 2)), ((2, 2), (1, 2))]",2,2,0.3281
995,1,23,"(1, 0)","(2, 3)",17,2,5,"[((2, 1), (2, 2)), ((2, 2), (2, 1)), ((0, 2), (1, 2)), ((1, 2), (0, 2)), ((2, 0), (2, 1)), ((2, 1), (2, 0)), ((3, 2), (3, 3)), ((3, 3), (3, 2)), ((3, 0), (3, 1)), ((3, 1), (3, 0)), ((0, 2), (0, 3)), ((0, 3), (0, 2)), ((1, 0), (2, 0)), ((2, 0), (1, 0)), ((1, 3), (2, 3)), ((2, 3), (1, 3)), ((2, 2), (3, 2)), ((3, 2), (2, 2)), ((1, 0), (1, 1)), ((1, 1), (1, 0)), ((0, 0), (1, 0)), ((1, 0), (0, 0)), ((0, 1), (1, 1)), ((1, 1), (0, 1)), ((2, 0), (3, 0)), ((3, 0), (2, 0)), ((2, 2), (2, 3)), ((2, 3), (2, 2)), ((3, 1), (3, 2)), ((3, 2), (3, 1)), ((1, 2), (1, 3)), ((1, 3), (1, 2)), ((2, 3), (3, 3)), ((3, 3), (2, 3))]",4,4,1.615
995,1,24,"(1, 0)","(2, 3)",17,2,5,"[((0, 3), (1, 3)), ((1, 3), (0, 3)), ((2, 3), (3, 3)), ((3, 3), (2, 3)), ((2, 0), (2, 1)), ((2, 1), (2, 0)), ((0, 1), (0, 2)), ((0, 2), (0, 1)), ((1, 1), (1, 2)), ((1, 2), (1, 1)), ((0, 1), (1, 1)), ((1, 1), (0, 1)), ((0, 2), (0, 3)), ((0, 3), (0, 2)), ((3, 0), (3, 1)), ((3, 1), (3, 0)), ((1, 2), (2, 2)), ((2, 2), (1, 2)), ((2, 2), (3, 2)), ((3, 2), (2, 2)), ((0, 0), (1, 0)), ((1, 0), (0, 0)), ((1, 1), (2, 1)), ((2, 1), (1, 1)), ((1, 3), (2, 3)), ((2, 3), (1, 3)), ((0, 2), (1, 2)), ((1, 2), (0, 2)), ((0, 0), (0, 1)), ((0, 1), (0, 0)), ((3, 1), (3, 2)), ((3, 2), (3, 1)), ((1, 0), (2, 0)), ((2, 0), (1, 0))]",4,4,3.23
995,1,25,"(3, 2)","(0, 1)",17,2,5,"[((3, 1), (3, 2)), ((3, 2), (3, 1)), ((0, 0), (1, 0)), ((1, 0), (0, 0)), ((1, 2), (2, 2)), ((2, 2), (1, 2)), ((0, 3), (1, 3)), ((1, 3), (0, 3)), ((1, 1), (2, 1)), ((2, 1), (1, 1)), ((1, 0), (1, 1)), ((1, 1), (1, 0)), ((3, 0), (3, 1)), ((3, 1), (3, 0)), ((2, 3), (3, 3)), ((3, 3), (2, 3)), ((2, 2), (3, 2)), ((3, 2), (2, 2)), ((1, 0), (2, 0)), ((2, 0), (1, 0)), ((1, 3), (2, 3)), ((2, 3), (1, 3)), ((2, 2), (2, 3)), ((2, 3), (2, 2)), ((0, 2), (0, 3)), ((0, 3), (0, 2)), ((0, 0), (0, 1)), ((0, 1), (0, 0)), ((0, 1), (1, 1)), ((1, 1), (0, 1)), ((0, 1), (0, 2)), ((0, 2), (0, 1)), ((2, 0), (2, 1)), ((2, 1), (2, 0))]",1,1,1.5648
995,1,26,"(0, 1)","(3, 2)",17,2,5,"[((2, 0), (3, 0)), ((3, 0), (2, 0)), ((2, 2), (2, 3)), ((2, 3), (2, 2)), ((2, 1), (3, 1)), ((3, 1), (2, 1)), ((0, 0), (1, 0)), ((1, 0), (0, 0)), ((3, 1), (3, 2)), ((3, 2), (3, 1)), ((1, 2), (2, 2)), ((2, 2), (1, 2)), ((0, 2), (0, 3)), ((0, 3), (0, 2)), ((1, 1), (1, 2)), ((1, 2), (1, 1)), ((3, 0), (3, 1)), ((3, 1), (3, 0)), ((0, 3), (1, 3)), ((1, 3), (0, 3)), ((0, 1), (1, 1)), ((1, 1), (0, 1)), ((2, 1), (2, 2)), ((2, 2), (2, 1)), ((1, 3), (2, 3)), ((2, 3), (1, 3)), ((3, 2), (3, 3)), ((3, 3), (3, 2)), ((0, 2), (1, 2)), ((1, 2), (0, 2)), ((1, 0), (2, 0)), ((2, 0), (1, 0)), ((1, 1), (2, 1)), ((2, 1), (1, 1))]",3,3,3.8471
995,1,27,"(0, 2)","(3, 1)",15,0,5,"[((0, 0), (0, 1)), ((0, 1), (0, 0)), ((0, 1), (0, 2)), ((0, 2), (0, 1)), ((0, 2), (0, 3)), ((0, 3), (0, 2)), ((3, 2), (3, 3)), ((3, 3), (3, 2)), ((1, 1), (1, 2)), ((1, 2), (1, 1)), ((0, 2), (1, 2)), ((1, 2), (0, 2)), ((2, 1), (3, 1)), ((3, 1), (2, 1)), ((0, 3), (1, 3)), ((1, 3), (0, 3)), ((2, 0), (3, 0)), ((3, 0), (2, 0)), ((2, 3), (3, 3)), ((3, 3), (2, 3)), ((1, 2), (2, 2)), ((2, 2), (1, 2)), ((1, 0), (1, 1)), ((1, 1), (1, 0)), ((1, 1), (2, 1)), ((2, 1), (1, 1)), ((3, 0), (3, 1)), ((3, 1), (3, 0)), ((3, 1), (3, 2)), ((3, 2), (3, 1))]",1,1,0.3313
995,1,28,"(1, 0)","(2, 3)",17,2,5,"[((2, 1), (2, 2)), ((2, 2), (2, 1)), ((0, 3), (1, 3)), ((1, 3), (0, 3)), ((0, 2), (1, 2)), ((1, 2), (0, 2)), ((3, 2), (3, 3)), ((3, 3), (3, 2)), ((0, 1), (1, 1)), ((1, 1), (0, 1)), ((3, 1), (3, 2)), ((3, 2), (3, 1)), ((1, 1), (1, 2)), ((1, 2), (1, 1)), ((1, 2), (2, 2)), ((2, 2), (1, 2)), ((2, 2), (2, 3)), ((2, 3), (2, 2)), ((1, 0), (1, 1)), ((1, 1), (1, 0)), ((2, 0), (2, 1)), ((2, 1), (2, 0)), ((2, 2), (3, 2)), ((3, 2), (2, 2)), ((2, 3), (3, 3)), ((3, 3), (2, 3)), ((2, 0), (3, 0)), ((3, 0), (2, 0)), ((1, 3), (2, 3)), ((2, 3), (1, 3)), ((0, 0), (0, 1)), ((0, 1), (0, 0)), ((1, 2), (1, 3)), ((1, 3), (1, 2))]",3,3,0.4938
995,1,29,"(1, 3)","(2, 0)",16,1,5,"[((1, 2), (1, 3)), ((1, 3), (1, 2)), ((1, 1), (1, 2)), ((1, 2), (1, 1)), ((2, 0), (2, 1)), ((2, 1), (2, 0)), ((1, 0), (2, 0)), ((2, 0), (1, 0)), ((1, 3), (2, 3)), ((2, 3), (1, 3)), ((2, 2), (2, 3)), ((2, 3), (2, 2)), ((0, 2), (0, 3)), ((0, 3), (0, 2)), ((1, 2), (2, 2)), ((2, 2), (1, 2)), ((0, 0), (1, 0)), ((1, 0), (0, 0)), ((2, 3), (3, 3)), ((3, 3), (2, 3)), ((3, 0), (3, 1)), ((3, 1), (3, 0)), ((0, 3), (1, 3)), ((1, 3), (0, 3)), ((1, 0), (1, 1)), ((1, 1), (1, 0)), ((3, 2), (3, 3)), ((3, 3), (3, 2)), ((2, 1), (3, 1)), ((3, 1), (2, 1)), ((0, 0), (0, 1)), ((0, 1), (0, 0))]",2,2,0.381
995,1,30,"(1, 0)","(2, 3)",18,3,5,"[((0, 3), (1, 3)), ((1, 3), (0, 3)), ((0, 2), (1, 2)), ((1, 2), (0, 2)), ((0, 1), (0, 2)), ((0, 2), (0, 1)), ((3, 1), (3, 2)), ((3, 2), (3, 1)), ((1, 1), (1, 2)), ((1, 2), (1, 1)), ((1, 1), (2, 1)), ((2, 1), (1, 1)), ((2, 0), (2, 1)), ((2, 1), (2, 0)), ((2, 1), (3, 1)), ((3, 1), (2, 1)), ((1, 2), (2, 2)), ((2, 2), (1, 2)), ((2, 1), (2, 2)), ((2, 2), (2, 1)), ((0, 0), (0, 1)), ((0, 1), (0, 0)), ((3, 2), (3, 3)), ((3, 3), (3, 2)), ((0, 0), (1, 0)), ((1, 0), (0, 0)), ((1, 3), (2, 3)), ((2, 3), (1, 3)), ((2, 2), (3, 2)), ((3, 2), (2, 2)), ((0, 2), (0, 3)), ((0, 3), (0, 2)), ((3, 0), (3, 1)), ((3, 1), (3, 0)), ((1, 0), (2, 0)), ((2, 0), (1, 0))]",6,5,3.0464
995,1,31,"(1, 3)","(2, 0)",17,2,5,"[((2, 2), (3, 2)), ((3, 2), (2, 2)), ((0, 2), (0, 3)), ((0, 3), (0, 2)), ((3, 2), (3, 3)), ((3, 3), (3, 2)), ((1, 2), (1, 3)), ((1, 3), (1, 2)), ((3, 1), (3, 2)), ((3, 2), (3, 1)), ((3, 0), (3, 1)), ((3, 1), (3, 0)), ((1, 0), (2, 0)), ((2, 0), (1, 0)), ((0, 2), (1, 2)), ((1, 2), (0, 2)), ((0, 1), (1, 1)), ((1, 1), (0, 1)), ((2, 1), (2, 2)), ((2, 2), (2, 1)), ((2, 2), (2, 3)), ((2, 3), (2, 2)), ((0, 3), (1, 3)), ((1, 3), (0, 3)), ((1, 2), (2, 2)), ((2, 2), (1, 2)), ((1, 3), (2, 3)), ((2, 3), (1, 3)), ((2, 0), (3, 0)), ((3, 0), (2, 0)), ((1, 1), (2, 1)), ((2, 1), (1, 1)), ((0, 0), (0, 1)), ((0, 1), (0, 0))]",5,3,0.5147
995,1,32,"(2, 3)","(1, 0)",17,2,5,"[((3, 2), (3, 3)), ((3, 3), (3, 2)), ((1, 2), (1, 3)), ((1, 3), (1, 2)), ((0, 0), (1, 0)), ((1, 0), (0, 0)), ((1, 0), (1, 1)), ((1, 1), (1, 0)), ((0, 1), (1, 1)), ((1, 1), (0, 1)), ((0, 3), (1, 3)), ((1, 3), (0, 3)), ((1, 3), (2, 3)), ((2, 3), (1, 3)), ((1, 1), (2, 1)), ((2, 1), (1, 1)), ((0, 2), (1, 2)), ((1, 2), (0, 2)), ((2, 2), (3, 2)), ((3, 2), (2, 2)), ((2, 1), (2, 2)), ((2, 2), (2, 1)), ((1, 0), (2, 0)), ((2, 0), (1, 0)), ((0, 2), (0, 3)), ((0, 3), (0, 2)), ((2, 2), (2, 3)), ((2, 3), (2, 2)), ((3, 0), (3, 1)), ((3, 1), (3, 0)), ((0, 1), (0, 2)), ((0, 2), (0, 1)), ((2, 0), (3, 0)), ((3, 0), (2, 0))]",3,3,0.2969
995,1,33,"(1, 3)","(2, 0)",18,3,5,"[((3, 1), (3, 2)), ((3, 2), (3, 1)), ((2, 3), (3, 3)), ((3, 3), (2, 3)), ((0, 0), (1, 0)), ((1, 0), (0, 0)), ((1, 0), (2, 0)), ((2, 0), (1, 0)), ((1, 1), (1, 2)), ((1, 2), (1, 1)), ((2, 2), (2, 3)), ((2, 3), (2, 2)), ((0, 0), (0, 1)), ((0, 1), (0, 0)), ((3, 2), (3, 3)), ((3, 3), (3, 2)), ((0, 1), (1, 1)), ((1, 1), (0, 1)), ((1, 2), (1, 3)), ((1, 3), (1, 2)), ((2, 0), (3, 0)), ((3, 0), (2, 0)), ((0, 2), (0, 3)), ((0, 3), (0, 2)), ((2, 1), (3, 1)), ((3, 1), (2, 1)), ((1, 2), (2, 2)), ((2, 2), (1, 2)), ((1, 0), (1, 1)), ((1, 1), (1, 0)), ((0, 3), (1, 3)), ((1, 3), (0, 3)), ((2, 1), (2, 2)), ((2, 2), (2, 1)), ((0, 1), (0, 2)), ((0, 2), (0, 1))]",4,4,1.3462
995,1,34,"(0, 1)","(3, 2)",17,2,5,"[((0, 2), (1, 2)), ((1, 2), (0, 2)), ((2, 1), (2, 2)), ((2, 2), (2, 1)), ((2, 0), (3, 0)), ((3, 0), (2, 0)), ((0, 3), (1, 3)), ((1, 3), (0, 3)), ((0, 0), (0, 1)), ((0, 1), (0, 0)), ((3, 2), (3, 3)), ((3, 3), (3, 2)), ((3, 0), (3, 1)), ((3, 1), (3, 0)), ((0, 1), (0, 2)), ((0, 2), (0, 1)), ((2, 2), (2, 3)), ((2, 3), (2, 2)), ((1, 3), (2, 3)), ((2, 3), (1, 3)), ((1, 1), (1, 2)), ((1, 2), (1, 1)), ((1, 0), (1, 1)), ((1, 1), (1, 0)), ((2, 2), (3, 2)), ((3, 2), (2, 2)), ((1, 0), (2, 0)), ((2, 0), (1, 0)), ((0, 1), (1, 1)), ((1, 1), (0, 1)), ((0, 0), (1, 0)), ((1, 0), (0, 0)), ((2, 1), (3, 1)), ((3, 1), (2, 1))]",5,3,1.9301
995,1,35,"(0, 2)","(3, 1)",17,2,5,"[((1, 0), (2, 0)), ((2, 0), (1, 0)), ((3, 1), (3, 2)), ((3, 2), (3, 1)), ((0, 2), (0, 3)), ((0, 3), (0, 2)), ((2, 1), (3, 1)), ((3, 1), (2, 1)), ((1, 1), (1, 2)), ((1, 2), (1, 1)), ((1, 0), (1, 1)), ((1, 1), (1, 0)), ((2, 3), (3, 3)), ((3, 3), (2, 3)), ((3, 2), (3, 3)), ((3, 3), (3, 2)), ((0, 0), (0, 1)), ((0, 1), (0, 0)), ((1, 3), (2, 3)), ((2, 3), (1, 3)), ((2, 2), (2, 3)), ((2, 3), (2, 2)), ((0, 2), (1, 2)), ((1, 2), (0, 2)), ((0, 1), (0, 2)), ((0, 2), (0, 1)), ((1, 2), (1, 3)), ((1, 3), (1, 2)), ((3, 0), (3, 1)), ((3, 1), (3, 0)), ((2, 2), (3, 2)), ((3, 2), (2, 2)), ((2, 0), (3, 0)), ((3, 0), (2, 0))]",3,3,0.3809
995,1,36,"(2, 3)","(1, 0)",16,1,5,"[((3, 1), (3, 2)), ((3, 2), (3, 1)), ((2, 1), (3, 1)), ((3, 1), (2, 1)), ((1, 1), (1, 2)), ((1, 2), (1, 1)), ((1, 2), (1, 3)), ((1, 3), (1, 2)), ((2, 0), (3, 0)), ((3, 0), (2, 0)), ((1, 0), (1, 1)), ((1, 1), (1, 0)), ((1, 0), (2, 0)), ((2, 0), (1, 0)), ((3, 0), (3, 1)), ((3, 1), (3, 0)), ((0, 1), (0, 2)), ((0, 2), (0, 1)), ((2, 2), (3, 2)), ((3, 2), (2, 2)), ((0, 3), (1, 3)), ((1, 3), (0, 3)), ((1, 3), (2, 3)), ((2, 3), (1, 3)), ((2, 3), (3, 3)), ((3, 3), (2, 3)), ((2, 1), (2, 2)), ((2, 2), (2, 1)), ((0, 1), (1, 1)), ((1, 1), (0, 1)), ((0, 0), (1, 0)), ((1, 0), (0, 0))]",1,1,0.2593
995,1,37,"(3, 2)","(0, 1)",18,3,5,"[((0, 2), (0, 3)), ((0, 3), (0, 2)), ((0, 1), (0, 2)), ((0, 2), (0, 1)), ((0, 0), (0, 1)), ((0, 1), (0, 0)), ((3, 0), (3, 1)), ((3, 1), (3, 0)), ((2, 1), (3, 1)), ((3, 1), (2, 1)), ((3, 1), (3, 2)), ((3, 2), (3, 1)), ((0, 3), (1, 3)), ((1, 3), (0, 3)), ((3, 2), (3, 3)), ((3, 3), (3, 2)), ((1, 2), (1, 3)), ((1, 3), (1, 2)), ((1, 1), (2, 1)), ((2, 1), (1, 1)), ((1, 0), (2, 0)), ((2, 0), (1, 0)), ((2, 0), (2, 1)), ((2, 1), (2, 0)), ((2, 2), (2, 3)), ((2, 3), (2, 2)), ((1, 2), (2, 2)), ((2, 2), (1, 2)), ((1, 0), (1, 1)), ((1, 1), (1, 0)), ((2, 3), (3, 3)), ((3, 3), (2, 3)), ((2, 0), (3, 0)), ((3, 0), (2, 0)), ((2, 2), (3, 2)), ((3, 2), (2, 2))]",2,2,0.3977
995,1,38,"(2, 3)","(1, 0)",18,3,5,"[((0, 1), (0, 2)), ((0, 2), (0, 1)), ((3, 1), (3, 2)), ((3, 2), (3, 1)), ((1, 3), (2, 3)), ((2, 3), (1, 3)), ((2, 1), (3, 1)), ((3, 1), (2, 1)), ((0, 0), (1, 0)), ((1, 0), (0, 0)), ((1, 0), (2, 0)), ((2, 0), (1, 0)), ((2, 1), (2, 2)), ((2, 2), (2, 1)), ((0, 3), (1, 3)), ((1, 3), (0, 3)), ((0, 1), (1, 1)), ((1, 1), (0, 1)), ((2, 3), (3, 3)), ((3, 3), (2, 3)), ((1, 2), (1, 3)), ((1, 3), (1, 2)), ((0, 2), (1, 2)), ((1, 2), (0, 2)), ((0, 2), (0, 3)), ((0, 3), (0, 2)), ((1, 0), (1, 1)), ((1, 1), (1, 0)), ((2, 0), (2, 1)), ((2, 1), (2, 0)), ((1, 1), (1, 2)), ((1, 2), (1, 1)), ((3, 0), (3, 1)), ((3, 1), (3, 0)), ((3, 2), (3, 3)), ((3, 3), (3, 2))]",5,6,2.9807
995,1,39,"(0, 1)","(3, 2)",17,2,5,"[((2, 0), (2, 1)), ((2, 1), (2, 0)), ((2, 1), (3, 1)), ((3, 1), (2, 1)), ((0, 2), (1, 2)), ((1, 2), (0, 2)), ((1, 2), (2, 2)), ((2, 2), (1, 2)), ((3, 1), (3, 2)), ((3, 2), (3, 1)), ((1, 0), (1, 1)), ((1, 1), (1, 0)), ((2, 2), (2, 3)), ((2, 3), (2, 2)), ((3, 0), (3, 1)), ((3, 1), (3, 0)), ((0, 0), (1, 0)), ((1, 0), (0, 0)), ((0, 1), (0, 2)), ((0, 2), (0, 1)), ((2, 2), (3, 2)), ((3, 2), (2, 2)), ((3, 2), (3, 3)), ((3, 3), (3, 2)), ((0, 2), (0, 3)), ((0, 3), (0, 2)), ((0, 3), (1, 3)), ((1, 3), (0, 3)), ((0, 0), (0, 1)), ((0, 1), (0, 0)), ((1, 1), (1, 2)), ((1, 2), (1, 1)), ((0, 1), (1, 1)), ((1, 1), (0, 1))]",5,3,4.0983
995,1,40,"(1, 0)","(2, 3)",18,3,5,"[((2, 0), (2, 1)), ((2, 1), (2, 0)), ((2, 0), (3, 0)), ((3, 0), (2, 0)), ((2, 3), (3, 3)), ((3, 3), (2, 3)), ((1, 3), (2, 3)), ((2, 3), (1, 3)), ((1, 1), (2, 1)), ((2, 1), (1, 1)), ((3, 0), (3, 1)), ((3, 1), (3, 0)), ((0, 3), (1, 3)), ((1, 3), (0, 3)), ((1, 0), (1, 1)), ((1, 1), (1, 0)), ((0, 2), (0, 3)), ((0, 3), (0, 2)), ((1, 0), (2, 0)), ((2, 0), (1, 0)), ((0, 1), (1, 1)), ((1, 1), (0, 1)), ((0, 0), (1, 0)), ((1, 0), (0, 0)), ((0, 1), (0, 2)), ((0, 2), (0, 1)), ((1, 1), (1, 2)), ((1, 2), (1, 1)), ((3, 2), (3, 3)), ((3, 3), (3, 2)), ((2, 2), (2, 3)), ((2, 3), (2, 2)), ((0, 0), (0, 1)), ((0, 1), (0, 0)), ((2, 2), (3, 2)), ((3, 2), (2, 2))]",5,3,2.0311
995,1,41,"(0, 1)","(3, 2)",17,2,5,"[((1, 0), (2, 0)), ((2, 0), (1, 0)), ((1, 2), (1, 3)), ((1, 3), (1, 2)), ((2, 2), (2, 3)), ((2, 3), (2, 2)), ((0, 2), (0, 3)), ((0, 3), (0, 2)), ((2, 1), (3, 1)), ((3, 1), (2, 1)), ((0, 2), (1, 2)), ((1, 2), (0, 2)), ((2, 0), (2, 1)), ((2, 1), (2, 0)), ((1, 2), (2, 2)), ((2, 2), (1, 2)), ((1, 1), (2, 1)), ((2, 1), (1, 1)), ((3, 1), (3, 2)), ((3, 2), (3, 1)), ((0, 1), (0, 2)), ((0, 2), (0, 1)), ((1, 3), (2, 3)), ((2, 3), (1, 3)), ((0, 0), (0, 1)), ((0, 1), (0, 0)), ((2, 2), (3, 2)), ((3, 2), (2, 2)), ((2, 3), (3, 3)), ((3, 3), (2, 3)), ((1, 1), (1, 2)), ((1, 2), (1, 1)), ((3, 0), (3, 1)), ((3, 1), (3, 0))]",5,3,0.4484
995,1,42,"(3, 2)","(0, 1)",16,1,5,"[((3, 2), (3, 3)), ((3, 3), (3, 2)), ((3, 0), (3, 1)), ((3, 1), (3, 0)), ((2, 3), (3, 3)), ((3, 3), (2, 3)), ((3, 1), (3, 2)), ((3, 2), (3, 1)), ((2, 0), (3, 0)), ((3, 0), (2, 0)), ((0, 0), (1, 0)), ((1, 0), (0, 0)), ((0, 2), (0, 3)), ((0, 3), (0, 2)), ((1, 1), (2, 1)), ((2, 1), (1, 1)), ((0, 1), (0, 2)), ((0, 2), (0, 1)), ((2, 1), (3, 1)), ((3, 1), (2, 1)), ((0, 0), (0, 1)), ((0, 1), (0, 0)), ((1, 3), (2, 3)), ((2, 3), (1, 3)), ((0, 3), (1, 3)), ((1, 3), (0, 3)), ((2, 0), (2, 1)), ((2, 1), (2, 0)), ((1, 2), (1, 3)), ((1, 3), (1, 2)), ((2, 2), (3, 2)), ((3, 2), (2, 2))]",1,1,0.2632
995,1,43,"(1, 3)","(2, 0)",15,0,5,"[((2, 0), (3, 0)), ((3, 0), (2, 0)), ((2, 0), (2, 1)), ((2, 1), (2, 0)), ((3, 1), (3, 2)), ((3, 2), (3, 1)), ((1, 3), (2, 3)), ((2, 3), (1, 3)), ((0, 2), (0, 3)), ((0, 3), (0, 2)), ((0, 0), (1, 0)), ((1, 0), (0, 0)), ((2, 2), (3, 2)), ((3, 2), (2, 2)), ((0, 0), (0, 1)), ((0, 1), (0, 0)), ((0, 1), (0, 2)), ((0, 2), (0, 1)), ((2, 2), (2, 3)), ((2, 3), (2, 2)), ((1, 2), (1, 3)), ((1, 3), (1, 2)), ((3, 2), (3, 3)), ((3, 3), (3, 2)), ((1, 0), (1, 1)), ((1, 1), (1, 0)), ((1, 0), (2, 0)), ((2, 0), (1, 0)), ((2, 1), (3, 1)), ((3, 1), (2, 1))]",1,1,0.315
995,1,44,"(3, 2)","(0, 1)",17,2,5,"[((2, 3), (3, 3)), ((3, 3), (2, 3)), ((0, 1), (1, 1)), ((1, 1), (0, 1)), ((1, 0), (1, 1)), ((1, 1), (1, 0)), ((1, 2), (2, 2)), ((2, 2), (1, 2)), ((0, 2), (1, 2)), ((1, 2), (0, 2)), ((2, 1), (2, 2)), ((2, 2), (2, 1)), ((0, 0), (1, 0)), ((1, 0), (0, 0)), ((2, 0), (3, 0)), ((3, 0), (2, 0)), ((1, 1), (2, 1)), ((2, 1), (1, 1)), ((0, 3), (1, 3)), ((1, 3), (0, 3)), ((2, 2), (3, 2)), ((3, 2), (2, 2)), ((0, 2), (0, 3)), ((0, 3), (0, 2)), ((3, 2), (3, 3)), ((3, 3), (3, 2)), ((2, 1), (3, 1)), ((3, 1), (2, 1)), ((0, 0), (0, 1)), ((0, 1), (0, 0)), ((0, 1), (0, 2)), ((0, 2), (0, 1)), ((3, 0), (3, 1)), ((3, 1), (3, 0))]",3,3,1.0142
995,1,45,"(1, 0)","(2, 3)",18,3,5,"[((3, 0), (3, 1)), ((3, 1), (3, 0)), ((0, 0), (0, 1)), ((0, 1), (0, 0)), ((2, 0), (2, 1)), ((2, 1), (2, 0)), ((0, 1), (1, 1)), ((1, 1), (0, 1)), ((0, 2), (0, 3)), ((0, 3), (0, 2)), ((2, 2), (3, 2)), ((3, 2), (2, 2)), ((0, 2), (1, 2)), ((1, 2), (0, 2)), ((1, 3), (2, 3)), ((2, 3), (1, 3)), ((2, 3), (3, 3)), ((3, 3), (2, 3)), ((1, 1), (1, 2)), ((1, 2), (1, 1)), ((1, 2), (2, 2)), ((2, 2), (1, 2)), ((0, 0), (1, 0)), ((1, 0), (0, 0)), ((1, 0), (1, 1)), ((1, 1), (1, 0)), ((2, 0), (3, 0)), ((3, 0), (2, 0)), ((2, 1), (3, 1)), ((3, 1), (2, 1)), ((3, 1), (3, 2)), ((3, 2), (3, 1)), ((0, 3), (1, 3)), ((1, 3), (0, 3)), ((1, 2), (1, 3)), ((1, 3), (1, 2))]",4,3,0.2482
995,1,46,"(2, 0)","(1, 3)",18,3,5,"[((3, 1), (3, 2)), ((3, 2), (3, 1)), ((1, 1), (1, 2)), ((1, 2), (1, 1)), ((0, 1), (0, 2)), ((0, 2), (0, 1)), ((3, 2), (3, 3)), ((3, 3), (3, 2)), ((0, 0), (1, 0)), ((1, 0), (0, 0)), ((0, 3), (1, 3)), ((1, 3), (0, 3)), ((3, 0), (3, 1)), ((3, 1), (3, 0)), ((1, 0), (1, 1)), ((1, 1), (1, 0)), ((0, 2), (1, 2)), ((1, 2), (0, 2)), ((2, 2), (2, 3)), ((2, 3), (2, 2)), ((1, 2), (1, 3)), ((1, 3), (1, 2)), ((2, 0), (3, 0)), ((3, 0), (2, 0)), ((1, 1), (2, 1)), ((2, 1), (1, 1)), ((1, 3), (2, 3)), ((2, 3), (1, 3)), ((2, 3), (3, 3)), ((3, 3), (2, 3)), ((2, 1), (3, 1)), ((3, 1), (2, 1)), ((2, 1), (2, 2)), ((2, 2), (2, 1)), ((0, 2), (0, 3)), ((0, 3), (0, 2))]",6,4,0.4802
995,1,47,"(0, 2)","(3, 1)",18,3,5,"[((1, 2), (2, 2)), ((2, 2), (1, 2)), ((3, 0), (3, 1)), ((3, 1), (3, 0)), ((0, 2), (1, 2)), ((1, 2), (0, 2)), ((1, 0), (2, 0)), ((2, 0), (1, 0)), ((1, 1), (1, 2)), ((1, 2), (1, 1)), ((3, 2), (3, 3)), ((3, 3), (3, 2)), ((1, 0), (1, 1)), ((1, 1), (1, 0)), ((2, 1), (3, 1)), ((3, 1), (2, 1)), ((3, 1), (3, 2)), ((3, 2), (3, 1)), ((2, 0), (2, 1)), ((2, 1), (2, 0)), ((0, 0), (1, 0)), ((1, 0), (0, 0)), ((0, 0), (0, 1)), ((0, 1), (0, 0)), ((2, 0), (3, 0)), ((3, 0), (2, 0)), ((0, 1), (1, 1)), ((1, 1), (0, 1)), ((0, 2), (0, 3)), ((0, 3), (0, 2)), ((1, 3), (2, 3)), ((2, 3), (1, 3)), ((2, 2), (3, 2)), ((3, 2), (2, 2)), ((2, 3), (3, 3)), ((3, 3), (2, 3))]",5,4,0.4819
995,1,48,"(3, 2)","(0, 1)",16,1,5,"[((2, 2), (3, 2)), ((3, 2), (2, 2)), ((1, 2), (2, 2)), ((2, 2), (1, 2)), ((2, 3), (3, 3)), ((3, 3), (2, 3)), ((0, 2), (1, 2)), ((1, 2), (0, 2)), ((0, 0), (0, 1)), ((0, 1), (0, 0)), ((0, 1), (0, 2)), ((0, 2), (0, 1)), ((1, 1), (1, 2)), ((1, 2), (1, 1)), ((3, 0), (3, 1)), ((3, 1), (3, 0)), ((0, 3), (1, 3)), ((1, 3), (0, 3)), ((0, 1), (1, 1)), ((1, 1), (0, 1)), ((2, 1), (3, 1)), ((3, 1), (2, 1)), ((1, 3), (2, 3)), ((2, 3), (1, 3)), ((2, 0), (3, 0)), ((3, 0), (2, 0)), ((1, 0), (1, 1)), ((1, 1), (1, 0)), ((2, 1), (2, 2)), ((2, 2), (2, 1)), ((3, 2), (3, 3)), ((3, 3), (3, 2))]",2,2,0.2112
995,1,49,"(3, 1)","(0, 2)",17,2,5,"[((2, 2), (2, 3)), ((2, 3), (2, 2)), ((1, 2), (2, 2)), ((2, 2), (1, 2)), ((1, 2), (1, 3)), ((1, 3), (1, 2)), ((3, 0), (3, 1)), ((3, 1), (3, 0)), ((2, 1), (3, 1)), ((3, 1), (2, 1)), ((0, 2), (0, 3)), ((0, 3), (0, 2)), ((0, 1), (0, 2)), ((0, 2), (0, 1)), ((3, 1), (3, 2)), ((3, 2), (3, 1)), ((0, 3), (1, 3)), ((1, 3), (0, 3)), ((1, 3), (2, 3)), ((2, 3), (1, 3)), ((0, 0), (0, 1)), ((0, 1), (0, 0)), ((2, 2), (3, 2)), ((3, 2), (2, 2)), ((0, 1), (1, 1)), ((1, 1), (0, 1)), ((2, 3), (3, 3)), ((3, 3), (2, 3)), ((1, 0), (2, 0)), ((2, 0), (1, 0)), ((1, 0), (1, 1)), ((1, 1), (1, 0)), ((0, 2), (1, 2)), ((1, 2), (0, 2))]",4,4,0.815
995,1,50,"(0, 1)","(3, 2)",18,3,5,"[((2, 1), (3, 1)), ((3, 1), (2, 1)), ((0, 3), (1, 3)), ((1, 3), (0, 3)), ((1, 2), (2, 2)), ((2, 2), (1, 2)), ((2, 0), (2, 1)), ((2, 1), (2, 0)), ((2, 3), (3, 3)), ((3, 3), (2, 3)), ((1, 0), (1, 1)), ((1, 1), (1, 0)), ((0, 1), (0, 2)), ((0, 2), (0, 1)), ((0, 2), (1, 2)), ((1, 2), (0, 2)), ((0, 0), (0, 1)), ((0, 1), (0, 0)), ((1, 1), (2, 1)), ((2, 1), (1, 1)), ((1, 3), (2, 3)), ((2, 3), (1, 3)), ((3, 2), (3, 3)), ((3, 3), (3, 2)), ((1, 1), (1, 2)), ((1, 2), (1, 1)), ((2, 1), (2, 2)), ((2, 2), (2, 1)), ((3, 1), (3, 2)), ((3, 2), (3, 1)), ((0, 2), (0, 3)), ((0, 3), (0, 2)), ((2, 0), (3, 0)), ((3, 0), (2, 0)), ((3, 0), (3, 1)), ((3, 1), (3, 0))]",5,4,0.9805
995,1,51,"(1, 3)","(2, 0)",18,3,5,"[((2, 2), (3, 2)), ((3, 2), (2, 2)), ((2, 1), (3, 1)), ((3, 1), (2, 1)), ((1, 3), (2, 3)), ((2, 3), (1, 3)), ((3, 2), (3, 3)), ((3, 3), (3, 2)), ((2, 0), (3, 0)), ((3, 0), (2, 0)), ((2, 2), (2, 3)), ((2, 3), (2, 2)), ((0, 1), (0, 2)), ((0, 2), (0, 1)), ((0, 0), (0, 1)), ((0, 1), (0, 0)), ((3, 1), (3, 2)), ((3, 2), (3, 1)), ((0, 2), (1, 2)), ((1, 2), (0, 2)), ((0, 1), (1, 1)), ((1, 1), (0, 1)), ((1, 0), (2, 0)), ((2, 0), (1, 0)), ((3, 0), (3, 1)), ((3, 1), (3, 0)), ((2, 3), (3, 3)), ((3, 3), (2, 3)), ((2, 0), (2, 1)), ((2, 1), (2, 0)), ((1, 2), (2, 2)), ((2, 2), (1, 2)), ((0, 0), (1, 0)), ((1, 0), (0, 0)), ((0, 3), (1, 3)), ((1, 3), (0, 3))]",6,5,0.8146
995,1,52,"(1, 3)","(2, 0)",18,3,5,"[((1, 0), (2, 0)), ((2, 0), (1, 0)), ((1, 2), (2, 2)), ((2, 2), (1, 2)), ((3, 0), (3, 1)), ((3, 1), (3, 0)), ((1, 1), (2, 1)), ((2, 1), (1, 1)), ((0, 3), (1, 3)), ((1, 3), (0, 3)), ((2, 0), (2, 1)), ((2, 1), (2, 0)), ((2, 1), (3, 1)), ((3, 1), (2, 1)), ((1, 2), (1, 3)), ((1, 3), (1, 2)), ((0, 1), (0, 2)), ((0, 2), (0, 1)), ((0, 1), (1, 1)), ((1, 1), (0, 1)), ((2, 2), (3, 2)), ((3, 2), (2, 2)), ((1, 3), (2, 3)), ((2, 3), (1, 3)), ((1, 1), (1, 2)), ((1, 2), (1, 1)), ((0, 0), (0, 1)), ((0, 1), (0, 0)), ((2, 2), (2, 3)), ((2, 3), (2, 2)), ((1, 0), (1, 1)), ((1, 1), (1, 0)), ((2, 3), (3, 3)), ((3, 3), (2, 3)), ((2, 0), (3, 0)), ((3, 0), (2, 0))]",6,3,0.4468
995,1,53,"(0, 1)","(3, 2)",16,1,5,"[((3, 0), (3, 1)), ((3, 1), (3, 0)), ((0, 0), (1, 0)), ((1, 0), (0, 0)), ((1, 0), (2, 0)), ((2, 0), (1, 0)), ((2, 0), (2, 1)), ((2, 1), (2, 0)), ((2, 3), (3, 3)), ((3, 3), (2, 3)), ((0, 1), (0, 2)), ((0, 2), (0, 1)), ((0, 3), (1, 3)), ((1, 3), (0, 3)), ((2, 0), (3, 0)), ((3, 0), (2, 0)), ((1, 0), (1, 1)), ((1, 1), (1, 0)), ((2, 1), (3, 1)), ((3, 1), (2, 1)), ((1, 3), (2, 3)), ((2, 3), (1, 3)), ((2, 2), (3, 2)), ((3, 2), (2, 2)), ((2, 1), (2, 2)), ((2, 2), (2, 1)), ((0, 2), (0, 3)), ((0, 3), (0, 2)), ((2, 2), (2, 3)), ((2, 3), (2, 2)), ((1, 1), (1, 2)), ((1, 2), (1, 1))]",1,1,0.1981
995,1,54,"(3, 2)","(0, 1)",17,2,5,"[((3, 0), (3, 1)), ((3, 1), (3, 0)), ((0, 0), (0, 1)), ((0, 1), (0, 0)), ((1, 0), (1, 1)), ((1, 1), (1, 0)), ((1, 2), (2, 2)), ((2, 2), (1, 2)), ((1, 2), (1, 3)), ((1, 3), (1, 2)), ((3, 2), (3, 3)), ((3, 3), (3, 2)), ((2, 2), (2, 3)), ((2, 3), (2, 2)), ((0, 2), (1, 2)), ((1, 2), (0, 2)), ((1, 1), (2, 1)), ((2, 1), (1, 1)), ((3, 1), (3, 2)), ((3, 2), (3, 1)), ((2, 2), (3, 2)), ((3, 2), (2, 2)), ((1, 3), (2, 3)), ((2, 3), (1, 3)), ((2, 1), (3, 1)), ((3, 1), (2, 1)), ((1, 0), (2, 0)), ((2, 0), (1, 0)), ((0, 3), (1, 3)), ((1, 3), (0, 3)), ((0, 1), (1, 1)), ((1, 1), (0, 1)), ((1, 1), (1, 2)), ((1, 2), (1, 1))]",3,3,1.5969
995,2,1,"(2, 3)","(1, 0)",17,2,3,"[((2, 1), (2, 2)), ((2, 2), (2, 1)), ((3, 2), (3, 3)), ((3, 3), (3, 2)), ((2, 3), (3, 3)), ((3, 3), (2, 3)), ((1, 1), (1, 2)), ((1, 2), (1, 1)), ((0, 0), (1, 0)), ((1, 0), (0, 0)), ((1, 2), (2, 2)), ((2, 2), (1, 2)), ((1, 1), (2, 1)), ((2, 1), (1, 1)), ((1, 3), (2, 3)), ((2, 3), (1, 3)), ((0, 0), (0, 1)), ((0, 1), (0, 0)), ((2, 0), (3, 0)), ((3, 0), (2, 0)), ((1, 2), (1, 3)), ((1, 3), (1, 2)), ((0, 1), (0, 2)), ((0, 2), (0, 1)), ((3, 0), (3, 1)), ((3, 1), (3, 0)), ((0, 1), (1, 1)), ((1, 1), (0, 1)), ((1, 0), (2, 0)), ((2, 0), (1, 0)), ((0, 2), (0, 3)), ((0, 3), (0, 2)), ((3, 1), (3, 2)), ((3, 2), (3, 1))]",3,4,0.747
995,2,2,"(0, 2)","(3, 1)",18,3,3,"[((2, 2), (2, 3)), ((2, 3), (2, 2)), ((2, 0), (3, 0)), ((3, 0), (2, 0)), ((0, 0), (1, 0)), ((1, 0), (0, 0)), ((3, 1), (3, 2)), ((3, 2), (3, 1)), ((3, 2), (3, 3)), ((3, 3), (3, 2)), ((1, 2), (2, 2)), ((2, 2), (1, 2)), ((2, 3), (3, 3)), ((3, 3), (2, 3)), ((0, 2), (0, 3)), ((0, 3), (0, 2)), ((2, 2), (3, 2)), ((3, 2), (2, 2)), ((1, 3), (2, 3)), ((2, 3), (1, 3)), ((0, 1), (1, 1)), ((1, 1), (0, 1)), ((3, 0), (3, 1)), ((3, 1), (3, 0)), ((1, 1), (1, 2)), ((1, 2), (1, 1)), ((1, 0), (1, 1)), ((1, 1), (1, 0)), ((0, 0), (0, 1)), ((0, 1), (0, 0)), ((2, 1), (2, 2)), ((2, 2), (2, 1)), ((2, 0), (2, 1)), ((2, 1), (2, 0)), ((0, 2), (1, 2)), ((1, 2), (0, 2))]",5,5,2.965
995,2,3,"(3, 2)","(0, 1)",17,2,3,"[((1, 2), (2, 2)), ((2, 2), (1, 2)), ((2, 3), (3, 3)), ((3, 3), (2, 3)), ((1, 3), (2, 3)), ((2, 3), (1, 3)), ((3, 1), (3, 2)), ((3, 2), (3, 1)), ((0, 2), (1, 2)), ((1, 2), (0, 2)), ((0, 0), (1, 0)), ((1, 0), (0, 0)), ((2, 2), (3, 2)), ((3, 2), (2, 2)), ((1, 2), (1, 3)), ((1, 3), (1, 2)), ((2, 0), (2, 1)), ((2, 1), (2, 0)), ((2, 0), (3, 0)), ((3, 0), (2, 0)), ((0, 1), (1, 1)), ((1, 1), (0, 1)), ((1, 1), (1, 2)), ((1, 2), (1, 1)), ((2, 1), (2, 2)), ((2, 2), (2, 1)), ((0, 3), (1, 3)), ((1, 3), (0, 3)), ((2, 1), (3, 1)), ((3, 1), (2, 1)), ((2, 2), (2, 3)), ((2, 3), (2, 2)), ((1, 0), (1, 1)), ((1, 1), (1, 0))]",4,2,3.4473
995,2,4,"(0, 2)","(3, 1)",17,2,3,"[((1, 1), (2, 1)), ((2, 1), (1, 1)), ((2, 1), (3, 1)), ((3, 1), (2, 1)), ((0, 2), (1, 2)), ((1, 2), (0, 2)), ((1, 0), (1, 1)), ((1, 1), (1, 0)), ((1, 2), (1, 3)), ((1, 3), (1, 2)), ((1, 1), (1, 2)), ((1, 2), (1, 1)), ((0, 0), (0, 1)), ((0, 1), (0, 0)), ((0, 1), (1, 1)), ((1, 1), (0, 1)), ((1, 2), (2, 2)), ((2, 2), (1, 2)), ((1, 0), (2, 0)), ((2, 0), (1, 0)), ((2, 0), (3, 0)), ((3, 0), (2, 0)), ((1, 3), (2, 3)), ((2, 3), (1, 3)), ((0, 2), (0, 3)), ((0, 3), (0, 2)), ((0, 0), (1, 0)), ((1, 0), (0, 0)), ((3, 2), (3, 3)), ((3, 3), (3, 2)), ((2, 2), (3, 2)), ((3, 2), (2, 2)), ((0, 3), (1, 3)), ((1, 3), (0, 3))]",6,3,1.1812
995,2,5,"(0, 1)","(3, 2)",17,2,3,"[((1, 0), (2, 0)), ((2, 0), (1, 0)), ((0, 2), (1, 2)), ((1, 2), (0, 2)), ((2, 1), (3, 1)), ((3, 1), (2, 1)), ((3, 0), (3, 1)), ((3, 1), (3, 0)), ((2, 3), (3, 3)), ((3, 3), (2, 3)), ((0, 3), (1, 3)), ((1, 3), (0, 3)), ((1, 1), (2, 1)), ((2, 1), (1, 1)), ((0, 2), (0, 3)), ((0, 3), (0, 2)), ((1, 2), (1, 3)), ((1, 3), (1, 2)), ((2, 1), (2, 2)), ((2, 2), (2, 1)), ((2, 0), (3, 0)), ((3, 0), (2, 0)), ((3, 2), (3, 3)), ((3, 3), (3, 2)), ((1, 1), (1, 2)), ((1, 2), (1, 1)), ((0, 1), (1, 1)), ((1, 1), (0, 1)), ((1, 3), (2, 3)), ((2, 3), (1, 3)), ((0, 0), (1, 0)), ((1, 0), (0, 0)), ((2, 2), (3, 2)), ((3, 2), (2, 2))]",3,3,3.8972
995,2,6,"(0, 1)","(3, 2)",19,4,3,"[((0, 2), (0, 3)), ((0, 3), (0, 2)), ((1, 2), (2, 2)), ((2, 2), (1, 2)), ((1, 0), (2, 0)), ((2, 0), (1, 0)), ((1, 3), (2, 3)), ((2, 3), (1, 3)), ((0, 1), (0, 2)), ((0, 2), (0, 1)), ((2, 2), (2, 3)), ((2, 3), (2, 2)), ((2, 0), (2, 1)), ((2, 1), (2, 0)), ((0, 0), (1, 0)), ((1, 0), (0, 0)), ((2, 0), (3, 0)), ((3, 0), (2, 0)), ((1, 2), (1, 3)), ((1, 3), (1, 2)), ((2, 3), (3, 3)), ((3, 3), (2, 3)), ((0, 0), (0, 1)), ((0, 1), (0, 0)), ((3, 1), (3, 2)), ((3, 2), (3, 1)), ((0, 1), (1, 1)), ((1, 1), (0, 1)), ((2, 1), (3, 1)), ((3, 1), (2, 1)), ((0, 3), (1, 3)), ((1, 3), (0, 3)), ((0, 2), (1, 2)), ((1, 2), (0, 2)), ((3, 0), (3, 1)), ((3, 1), (3, 0)), ((1, 1), (2, 1)), ((2, 1), (1, 1))]",4,4,2.5487
995,2,7,"(3, 2)","(0, 1)",17,2,3,"[((1, 2), (2, 2)), ((2, 2), (1, 2)), ((1, 1), (2, 1)), ((2, 1), (1, 1)), ((2, 0), (2, 1)), ((2, 1), (2, 0)), ((1, 0), (1, 1)), ((1, 1), (1, 0)), ((2, 0), (3, 0)), ((3, 0), (2, 0)), ((3, 2), (3, 3)), ((3, 3), (3, 2)), ((0, 0), (1, 0)), ((1, 0), (0, 0)), ((0, 2), (1, 2)), ((1, 2), (0, 2)), ((0, 1), (1, 1)), ((1, 1), (0, 1)), ((0, 2), (0, 3)), ((0, 3), (0, 2)), ((1, 1), (1, 2)), ((1, 2), (1, 1)), ((3, 1), (3, 2)), ((3, 2), (3, 1)), ((1, 3), (2, 3)), ((2, 3), (1, 3)), ((0, 3), (1, 3)), ((1, 3), (0, 3)), ((1, 0), (2, 0)), ((2, 0), (1, 0)), ((2, 3), (3, 3)), ((3, 3), (2, 3)), ((1, 2), (1, 3)), ((1, 3), (1, 2))]",6,2,1.3127
995,2,8,"(1, 0)","(2, 3)",17,2,3,"[((0, 2), (1, 2)), ((1, 2), (0, 2)), ((1, 2), (1, 3)), ((1, 3), (1, 2)), ((2, 0), (3, 0)), ((3, 0), (2, 0)), ((1, 0), (1, 1)), ((1, 1), (1, 0)), ((2, 1), (3, 1)), ((3, 1), (2, 1)), ((1, 0), (2, 0)), ((2, 0), (1, 0)), ((1, 1), (1, 2)), ((1, 2), (1, 1)), ((0, 3), (1, 3)), ((1, 3), (0, 3)), ((2, 3), (3, 3)), ((3, 3), (2, 3)), ((2, 2), (2, 3)), ((2, 3), (2, 2)), ((2, 1), (2, 2)), ((2, 2), (2, 1)), ((3, 0), (3, 1)), ((3, 1), (3, 0)), ((0, 0), (0, 1)), ((0, 1), (0, 0)), ((1, 1), (2, 1)), ((2, 1), (1, 1)), ((1, 3), (2, 3)), ((2, 3), (1, 3)), ((0, 1), (0, 2)), ((0, 2), (0, 1)), ((3, 2), (3, 3)), ((3, 3), (3, 2))]",4,4,1.6641
995,2,9,"(1, 0)","(2, 3)",15,0,3,"[((1, 2), (2, 2)), ((2, 2), (1, 2)), ((0, 2), (1, 2)), ((1, 2), (0, 2)), ((0, 0), (1, 0)), ((1, 0), (0, 0)), ((0, 1), (1, 1)), ((1, 1), (0, 1)), ((1, 0), (2, 0)), ((2, 0), (1, 0)), ((2, 3), (3, 3)), ((3, 3), (2, 3)), ((0, 1), (0, 2)), ((0, 2), (0, 1)), ((3, 2), (3, 3)), ((3, 3), (3, 2)), ((2, 1), (3, 1)), ((3, 1), (2, 1)), ((0, 0), (0, 1)), ((0, 1), (0, 0)), ((3, 1), (3, 2)), ((3, 2), (3, 1)), ((2, 2), (2, 3)), ((2, 3), (2, 2)), ((0, 3), (1, 3)), ((1, 3), (0, 3)), ((1, 3), (2, 3)), ((2, 3), (1, 3)), ((3, 0), (3, 1)), ((3, 1), (3, 0))]",1,1,0.347
995,2,10,"(2, 0)","(1, 3)",17,2,3,"[((1, 0), (2, 0)), ((2, 0), (1, 0)), ((2, 1), (2, 2)), ((2, 2), (2, 1)), ((0, 1), (1, 1)), ((1, 1), (0, 1)), ((1, 2), (2, 2)), ((2, 2), (1, 2)), ((0, 2), (1, 2)), ((1, 2), (0, 2)), ((3, 0), (3, 1)), ((3, 1), (3, 0)), ((0, 0), (1, 0)), ((1, 0), (0, 0)), ((3, 1), (3, 2)), ((3, 2), (3, 1)), ((1, 1), (1, 2)), ((1, 2), (1, 1)), ((0, 3), (1, 3)), ((1, 3), (0, 3)), ((2, 3), (3, 3)), ((3, 3), (2, 3)), ((0, 1), (0, 2)), ((0, 2), (0, 1)), ((2, 2), (3, 2)), ((3, 2), (2, 2)), ((1, 0), (1, 1)), ((1, 1), (1, 0)), ((2, 2), (2, 3)), ((2, 3), (2, 2)), ((1, 3), (2, 3)), ((2, 3), (1, 3)), ((2, 0), (3, 0)), ((3, 0), (2, 0))]",3,3,1.6136
995,2,11,"(0, 2)","(3, 1)",16,1,3,"[((2, 2), (3, 2)), ((3, 2), (2, 2)), ((0, 0), (0, 1)), ((0, 1), (0, 0)), ((1, 1), (2, 1)), ((2, 1), (1, 1)), ((0, 1), (0, 2)), ((0, 2), (0, 1)), ((0, 1), (1, 1)), ((1, 1), (0, 1)), ((0, 3), (1, 3)), ((1, 3), (0, 3)), ((1, 2), (1, 3)), ((1, 3), (1, 2)), ((2, 0), (2, 1)), ((2, 1), (2, 0)), ((0, 2), (0, 3)), ((0, 3), (0, 2)), ((2, 1), (3, 1)), ((3, 1), (2, 1)), ((3, 2), (3, 3)), ((3, 3), (3, 2)), ((2, 2), (2, 3)), ((2, 3), (2, 2)), ((2, 0), (3, 0)), ((3, 0), (2, 0)), ((2, 3), (3, 3)), ((3, 3), (2, 3)), ((1, 3), (2, 3)), ((2, 3), (1, 3)), ((1, 0), (1, 1)), ((1, 1), (1, 0))]",1,1,0.43
995,2,12,"(0, 1)","(3, 2)",18,3,3,"[((2, 2), (2, 3)), ((2, 3), (2, 2)), ((2, 0), (3, 0)), ((3, 0), (2, 0)), ((0, 0), (1, 0)), ((1, 0), (0, 0)), ((0, 1), (0, 2)), ((0, 2), (0, 1)), ((0, 0), (0, 1)), ((0, 1), (0, 0)), ((0, 2), (1, 2)), ((1, 2), (0, 2)), ((1, 3), (2, 3)), ((2, 3), (1, 3)), ((3, 2), (3, 3)), ((3, 3), (3, 2)), ((2, 0), (2, 1)), ((2, 1), (2, 0)), ((2, 1), (3, 1)), ((3, 1), (2, 1)), ((1, 0), (1, 1)), ((1, 1), (1, 0)), ((0, 3), (1, 3)), ((1, 3), (0, 3)), ((3, 1), (3, 2)), ((3, 2), (3, 1)), ((2, 1), (2, 2)), ((2, 2), (2, 1)), ((0, 2), (0, 3)), ((0, 3), (0, 2)), ((1, 2), (1, 3)), ((1, 3), (1, 2)), ((1, 0), (2, 0)), ((2, 0), (1, 0)), ((3, 0), (3, 1)), ((3, 1), (3, 0))]",6,4,1.6137
995,2,13,"(1, 0)","(2, 3)",17,2,3,"[((0, 0), (0, 1)), ((0, 1), (0, 0)), ((0, 2), (0, 3)), ((0, 3), (0, 2)), ((2, 1), (3, 1)), ((3, 1), (2, 1)), ((2, 2), (3, 2)), ((3, 2), (2, 2)), ((0, 1), (0, 2)), ((0, 2), (0, 1)), ((1, 2), (2, 2)), ((2, 2), (1, 2)), ((2, 2), (2, 3)), ((2, 3), (2, 2)), ((1, 2), (1, 3)), ((1, 3), (1, 2)), ((1, 1), (1, 2)), ((1, 2), (1, 1)), ((3, 2), (3, 3)), ((3, 3), (3, 2)), ((1, 3), (2, 3)), ((2, 3), (1, 3)), ((2, 3), (3, 3)), ((3, 3), (2, 3)), ((3, 1), (3, 2)), ((3, 2), (3, 1)), ((3, 0), (3, 1)), ((3, 1), (3, 0)), ((0, 3), (1, 3)), ((1, 3), (0, 3)), ((2, 0), (2, 1)), ((2, 1), (2, 0)), ((1, 0), (2, 0)), ((2, 0), (1, 0))]",3,3,1.2793
995,2,14,"(3, 1)","(0, 2)",16,1,3,"[((3, 2), (3, 3)), ((3, 3), (3, 2)), ((3, 0), (3, 1)), ((3, 1), (3, 0)), ((0, 2), (0, 3)), ((0, 3), (0, 2)), ((1, 1), (1, 2)), ((1, 2), (1, 1)), ((2, 2), (3, 2)), ((3, 2), (2, 2)), ((1, 0), (2, 0)), ((2, 0), (1, 0)), ((3, 1), (3, 2)), ((3, 2), (3, 1)), ((2, 0), (3, 0)), ((3, 0), (2, 0)), ((0, 3), (1, 3)), ((1, 3), (0, 3)), ((2, 3), (3, 3)), ((3, 3), (2, 3)), ((0, 2), (1, 2)), ((1, 2), (0, 2)), ((1, 1), (2, 1)), ((2, 1), (1, 1)), ((0, 0), (1, 0)), ((1, 0), (0, 0)), ((0, 1), (1, 1)), ((1, 1), (0, 1)), ((0, 0), (0, 1)), ((0, 1), (0, 0)), ((1, 2), (1, 3)), ((1, 3), (1, 2))]",2,2,0.381
995,2,15,"(3, 2)","(0, 1)",17,2,3,"[((2, 2), (3, 2)), ((3, 2), (2, 2)), ((1, 0), (2, 0)), ((2, 0), (1, 0)), ((3, 0), (3, 1)), ((3, 1), (3, 0)), ((2, 0), (3, 0)), ((3, 0), (2, 0)), ((2, 0), (2, 1)), ((2, 1), (2, 0)), ((1, 3), (2, 3)), ((2, 3), (1, 3)), ((0, 0), (1, 0)), ((1, 0), (0, 0)), ((2, 2), (2, 3)), ((2, 3), (2, 2)), ((0, 2), (0, 3)), ((0, 3), (0, 2)), ((1, 0), (1, 1)), ((1, 1), (1, 0)), ((3, 1), (3, 2)), ((3, 2), (3, 1)), ((1, 2), (2, 2)), ((2, 2), (1, 2)), ((1, 1), (1, 2)), ((1, 2), (1, 1)), ((0, 2), (1, 2)), ((1, 2), (0, 2)), ((0, 1), (1, 1)), ((1, 1), (0, 1)), ((2, 3), (3, 3)), ((3, 3), (2, 3)), ((1, 1), (2, 1)), ((2, 1), (1, 1))]",5,3,1.6471
995,2,16,"(1, 0)","(2, 3)",16,1,3,"[((2, 0), (3, 0)), ((3, 0), (2, 0)), ((3, 1), (3, 2)), ((3, 2), (3, 1)), ((2, 3), (3, 3)), ((3, 3), (2, 3)), ((1, 1), (1, 2)), ((1, 2), (1, 1)), ((0, 3), (1, 3)), ((1, 3), (0, 3)), ((3, 0), (3, 1)), ((3, 1), (3, 0)), ((1, 3), (2, 3)), ((2, 3), (1, 3)), ((1, 2), (2, 2)), ((2, 2), (1, 2)), ((0, 1), (0, 2)), ((0, 2), (0, 1)), ((1, 2), (1, 3)), ((1, 3), (1, 2)), ((0, 0), (0, 1)), ((0, 1), (0, 0)), ((0, 1), (1, 1)), ((1, 1), (0, 1)), ((3, 2), (3, 3)), ((3, 3), (3, 2)), ((1, 0), (1, 1)), ((1, 1), (1, 0)), ((2, 0), (2, 1)), ((2, 1), (2, 0)), ((0, 0), (1, 0)), ((1, 0), (0, 0))]",2,2,0.4803
995,2,17,"(3, 1)","(0, 2)",15,0,3,"[((0, 1), (0, 2)), ((0, 2), (0, 1)), ((0, 0), (0, 1)), ((0, 1), (0, 0)), ((2, 1), (3, 1)), ((3, 1), (2, 1)), ((0, 2), (1, 2)), ((1, 2), (0, 2)), ((2, 0), (3, 0)), ((3, 0), (2, 0)), ((0, 1), (1, 1)), ((1, 1), (0, 1)), ((3, 2), (3, 3)), ((3, 3), (3, 2)), ((2, 2), (2, 3)), ((2, 3), (2, 2)), ((0, 2), (0, 3)), ((0, 3), (0, 2)), ((1, 2), (2, 2)), ((2, 2), (1, 2)), ((1, 0), (2, 0)), ((2, 0), (1, 0)), ((2, 3), (3, 3)), ((3, 3), (2, 3)), ((0, 3), (1, 3)), ((1, 3), (0, 3)), ((1, 0), (1, 1)), ((1, 1), (1, 0)), ((2, 0), (2, 1)), ((2, 1), (2, 0))]",1,1,0.1968
995,2,18,"(1, 3)","(2, 0)",16,1,3,"[((0, 2), (0, 3)), ((0, 3), (0, 2)), ((1, 2), (1, 3)), ((1, 3), (1, 2)), ((2, 0), (3, 0)), ((3, 0), (2, 0)), ((2, 1), (3, 1)), ((3, 1), (2, 1)), ((1, 0), (2, 0)), ((2, 0), (1, 0)), ((2, 1), (2, 2)), ((2, 2), (2, 1)), ((3, 1), (3, 2)), ((3, 2), (3, 1)), ((0, 1), (0, 2)), ((0, 2), (0, 1)), ((1, 1), (1, 2)), ((1, 2), (1, 1)), ((0, 0), (1, 0)), ((1, 0), (0, 0)), ((2, 2), (2, 3)), ((2, 3), (2, 2)), ((3, 2), (3, 3)), ((3, 3), (3, 2)), ((2, 0), (2, 1)), ((2, 1), (2, 0)), ((0, 1), (1, 1)), ((1, 1), (0, 1)), ((2, 2), (3, 2)), ((3, 2), (2, 2)), ((1, 0), (1, 1)), ((1, 1), (1, 0))]",1,1,0.2482
995,2,19,"(3, 2)","(0, 1)",17,2,3,"[((1, 0), (1, 1)), ((1, 1), (1, 0)), ((3, 1), (3, 2)), ((3, 2), (3, 1)), ((1, 1), (2, 1)), ((2, 1), (1, 1)), ((0, 0), (1, 0)), ((1, 0), (0, 0)), ((0, 1), (0, 2)), ((0, 2), (0, 1)), ((2, 3), (3, 3)), ((3, 3), (2, 3)), ((3, 0), (3, 1)), ((3, 1), (3, 0)), ((2, 0), (2, 1)), ((2, 1), (2, 0)), ((0, 1), (1, 1)), ((1, 1), (0, 1)), ((1, 2), (1, 3)), ((1, 3), (1, 2)), ((1, 0), (2, 0)), ((2, 0), (1, 0)), ((0, 2), (0, 3)), ((0, 3), (0, 2)), ((3, 2), (3, 3)), ((3, 3), (3, 2)), ((2, 2), (2, 3)), ((2, 3), (2, 2)), ((0, 3), (1, 3)), ((1, 3), (0, 3)), ((2, 1), (3, 1)), ((3, 1), (2, 1)), ((1, 1), (1, 2)), ((1, 2), (1, 1))]",4,3,1.5283
995,2,20,"(2, 3)","(1, 0)",16,1,3,"[((1, 1), (1, 2)), ((1, 2), (1, 1)), ((2, 3), (3, 3)), ((3, 3), (2, 3)), ((1, 3), (2, 3)), ((2, 3), (1, 3)), ((1, 0), (1, 1)), ((1, 1), (1, 0)), ((2, 2), (2, 3)), ((2, 3), (2, 2)), ((2, 1), (3, 1)), ((3, 1), (2, 1)), ((3, 0), (3, 1)), ((3, 1), (3, 0)), ((2, 1), (2, 2)), ((2, 2), (2, 1)), ((3, 1), (3, 2)), ((3, 2), (3, 1)), ((0, 1), (0, 2)), ((0, 2), (0, 1)), ((2, 0), (3, 0)), ((3, 0), (2, 0)), ((0, 2), (0, 3)), ((0, 3), (0, 2)), ((1, 2), (1, 3)), ((1, 3), (1, 2)), ((1, 2), (2, 2)), ((2, 2), (1, 2)), ((0, 1), (1, 1)), ((1, 1), (0, 1)), ((0, 0), (1, 0)), ((1, 0), (0, 0))]",2,2,0.748
995,2,21,"(2, 3)","(1, 0)",16,1,3,"[((0, 3), (1, 3)), ((1, 3), (0, 3)), ((1, 0), (1, 1)), ((1, 1), (1, 0)), ((2, 2), (2, 3)), ((2, 3), (2, 2)), ((2, 2), (3, 2)), ((3, 2), (2, 2)), ((1, 1), (1, 2)), ((1, 2), (1, 1)), ((3, 2), (3, 3)), ((3, 3), (3, 2)), ((1, 3), (2, 3)), ((2, 3), (1, 3)), ((2, 0), (2, 1)), ((2, 1), (2, 0)), ((0, 0), (1, 0)), ((1, 0), (0, 0)), ((2, 3), (3, 3)), ((3, 3), (2, 3)), ((1, 2), (1, 3)), ((1, 3), (1, 2)), ((2, 0), (3, 0)), ((3, 0), (2, 0)), ((0, 1), (1, 1)), ((1, 1), (0, 1)), ((3, 0), (3, 1)), ((3, 1), (3, 0)), ((1, 0), (2, 0)), ((2, 0), (1, 0)), ((0, 1), (0, 2)), ((0, 2), (0, 1))]",3,2,1.3802
995,2,22,"(0, 1)","(3, 2)",18,3,3,"[((3, 2), (3, 3)), ((3, 3), (3, 2)), ((0, 0), (1, 0)), ((1, 0), (0, 0)), ((2, 1), (2, 2)), ((2, 2), (2, 1)), ((3, 0), (3, 1)), ((3, 1), (3, 0)), ((0, 1), (1, 1)), ((1, 1), (0, 1)), ((0, 1), (0, 2)), ((0, 2), (0, 1)), ((1, 1), (2, 1)), ((2, 1), (1, 1)), ((2, 2), (2, 3)), ((2, 3), (2, 2)), ((0, 3), (1, 3)), ((1, 3), (0, 3)), ((1, 2), (2, 2)), ((2, 2), (1, 2)), ((2, 0), (2, 1)), ((2, 1), (2, 0)), ((1, 3), (2, 3)), ((2, 3), (1, 3)), ((1, 1), (1, 2)), ((1, 2), (1, 1)), ((2, 0), (3, 0)), ((3, 0), (2, 0)), ((3, 1), (3, 2)), ((3, 2), (3, 1)), ((1, 0), (2, 0)), ((2, 0), (1, 0)), ((2, 3), (3, 3)), ((3, 3), (2, 3)), ((2, 2), (3, 2)), ((3, 2), (2, 2))]",6,3,2.5943
995,2,23,"(1, 0)","(2, 3)",15,0,3,"[((0, 0), (1, 0)), ((1, 0), (0, 0)), ((2, 2), (2, 3)), ((2, 3), (2, 2)), ((0, 2), (0, 3)), ((0, 3), (0, 2)), ((2, 0), (2, 1)), ((2, 1), (2, 0)), ((3, 1), (3, 2)), ((3, 2), (3, 1)), ((1, 2), (1, 3)), ((1, 3), (1, 2)), ((2, 1), (2, 2)), ((2, 2), (2, 1)), ((2, 2), (3, 2)), ((3, 2), (2, 2)), ((3, 0), (3, 1)), ((3, 1), (3, 0)), ((1, 1), (1, 2)), ((1, 2), (1, 1)), ((3, 2), (3, 3)), ((3, 3), (3, 2)), ((0, 2), (1, 2)), ((1, 2), (0, 2)), ((1, 0), (1, 1)), ((1, 1), (1, 0)), ((1, 0), (2, 0)), ((2, 0), (1, 0)), ((0, 0), (0, 1)), ((0, 1), (0, 0))]",1,1,0.9968
995,2,24,"(2, 0)","(1, 3)",17,2,3,"[((0, 1), (1, 1)), ((1, 1), (0, 1)), ((3, 2), (3, 3)), ((3, 3), (3, 2)), ((0, 0), (1, 0)), ((1, 0), (0, 0)), ((1, 2), (2, 2)), ((2, 2), (1, 2)), ((2, 2), (3, 2)), ((3, 2), (2, 2)), ((1, 0), (2, 0)), ((2, 0), (1, 0)), ((3, 0), (3, 1)), ((3, 1), (3, 0)), ((0, 2), (0, 3)), ((0, 3), (0, 2)), ((1, 3), (2, 3)), ((2, 3), (1, 3)), ((2, 1), (3, 1)), ((3, 1), (2, 1)), ((0, 1), (0, 2)), ((0, 2), (0, 1)), ((0, 2), (1, 2)), ((1, 2), (0, 2)), ((2, 0), (3, 0)), ((3, 0), (2, 0)), ((1, 2), (1, 3)), ((1, 3), (1, 2)), ((0, 0), (0, 1)), ((0, 1), (0, 0)), ((1, 0), (1, 1)), ((1, 1), (1, 0)), ((3, 1), (3, 2)), ((3, 2), (3, 1))]",3,3,1.497
995,2,25,"(1, 3)","(2, 0)",17,2,3,"[((1, 0), (1, 1)), ((1, 1), (1, 0)), ((0, 3), (1, 3)), ((1, 3), (0, 3)), ((3, 2), (3, 3)), ((3, 3), (3, 2)), ((3, 1), (3, 2)), ((3, 2), (3, 1)), ((0, 1), (0, 2)), ((0, 2), (0, 1)), ((2, 0), (3, 0)), ((3, 0), (2, 0)), ((0, 2), (0, 3)), ((0, 3), (0, 2)), ((0, 0), (1, 0)), ((1, 0), (0, 0)), ((2, 2), (3, 2)), ((3, 2), (2, 2)), ((1, 1), (1, 2)), ((1, 2), (1, 1)), ((1, 3), (2, 3)), ((2, 3), (1, 3)), ((0, 2), (1, 2)), ((1, 2), (0, 2)), ((1, 1), (2, 1)), ((2, 1), (1, 1)), ((3, 0), (3, 1)), ((3, 1), (3, 0)), ((2, 3), (3, 3)), ((3, 3), (2, 3)), ((1, 2), (2, 2)), ((2, 2), (1, 2)), ((1, 2), (1, 3)), ((1, 3), (1, 2))]",5,3,1.8972
995,2,26,"(1, 3)","(2, 0)",18,3,3,"[((0, 2), (0, 3)), ((0, 3), (0, 2)), ((2, 3), (3, 3)), ((3, 3), (2, 3)), ((0, 1), (0, 2)), ((0, 2), (0, 1)), ((3, 1), (3, 2)), ((3, 2), (3, 1)), ((2, 1), (3, 1)), ((3, 1), (2, 1)), ((1, 1), (2, 1)), ((2, 1), (1, 1)), ((2, 0), (3, 0)), ((3, 0), (2, 0)), ((1, 0), (2, 0)), ((2, 0), (1, 0)), ((2, 2), (3, 2)), ((3, 2), (2, 2)), ((2, 2), (2, 3)), ((2, 3), (2, 2)), ((2, 1), (2, 2)), ((2, 2), (2, 1)), ((3, 2), (3, 3)), ((3, 3), (3, 2)), ((1, 0), (1, 1)), ((1, 1), (1, 0)), ((1, 1), (1, 2)), ((1, 2), (1, 1)), ((2, 0), (2, 1)), ((2, 1), (2, 0)), ((0, 3), (1, 3)), ((1, 3), (0, 3)), ((0, 0), (0, 1)), ((0, 1), (0, 0)), ((0, 2), (1, 2)), ((1, 2), (0, 2))]",6,3,2.2152
995,2,27,"(2, 3)","(1, 0)",18,3,3,"[((2, 2), (2, 3)), ((2, 3), (2, 2)), ((3, 2), (3, 3)), ((3, 3), (3, 2)), ((0, 0), (0, 1)), ((0, 1), (0, 0)), ((3, 0), (3, 1)), ((3, 1), (3, 0)), ((0, 0), (1, 0)), ((1, 0), (0, 0)), ((0, 2), (0, 3)), ((0, 3), (0, 2)), ((1, 1), (1, 2)), ((1, 2), (1, 1)), ((1, 2), (1, 3)), ((1, 3), (1, 2)), ((3, 1), (3, 2)), ((3, 2), (3, 1)), ((1, 2), (2, 2)), ((2, 2), (1, 2)), ((2, 1), (2, 2)), ((2, 2), (2, 1)), ((0, 3), (1, 3)), ((1, 3), (0, 3)), ((2, 3), (3, 3)), ((3, 3), (2, 3)), ((1, 0), (2, 0)), ((2, 0), (1, 0)), ((0, 2), (1, 2)), ((1, 2), (0, 2)), ((1, 1), (2, 1)), ((2, 1), (1, 1)), ((2, 1), (3, 1)), ((3, 1), (2, 1)), ((2, 0), (3, 0)), ((3, 0), (2, 0))]",5,4,3.1135
995,2,28,"(0, 2)","(3, 1)",17,2,3,"[((3, 2), (3, 3)), ((3, 3), (3, 2)), ((1, 2), (2, 2)), ((2, 2), (1, 2)), ((1, 3), (2, 3)), ((2, 3), (1, 3)), ((3, 1), (3, 2)), ((3, 2), (3, 1)), ((3, 0), (3, 1)), ((3, 1), (3, 0)), ((1, 0), (1, 1)), ((1, 1), (1, 0)), ((0, 3), (1, 3)), ((1, 3), (0, 3)), ((1, 1), (2, 1)), ((2, 1), (1, 1)), ((2, 0), (3, 0)), ((3, 0), (2, 0)), ((1, 1), (1, 2)), ((1, 2), (1, 1)), ((2, 1), (2, 2)), ((2, 2), (2, 1)), ((2, 2), (2, 3)), ((2, 3), (2, 2)), ((0, 2), (0, 3)), ((0, 3), (0, 2)), ((0, 0), (1, 0)), ((1, 0), (0, 0)), ((0, 1), (0, 2)), ((0, 2), (0, 1)), ((2, 3), (3, 3)), ((3, 3), (2, 3)), ((0, 2), (1, 2)), ((1, 2), (0, 2))]",3,3,3.4969
995,2,29,"(2, 0)","(1, 3)",16,1,3,"[((2, 0), (2, 1)), ((2, 1), (2, 0)), ((1, 0), (2, 0)), ((2, 0), (1, 0)), ((0, 0), (1, 0)), ((1, 0), (0, 0)), ((2, 3), (3, 3)), ((3, 3), (2, 3)), ((1, 0), (1, 1)), ((1, 1), (1, 0)), ((3, 1), (3, 2)), ((3, 2), (3, 1)), ((0, 3), (1, 3)), ((1, 3), (0, 3)), ((2, 1), (3, 1)), ((3, 1), (2, 1)), ((0, 0), (0, 1)), ((0, 1), (0, 0)), ((2, 2), (2, 3)), ((2, 3), (2, 2)), ((2, 0), (3, 0)), ((3, 0), (2, 0)), ((0, 2), (0, 3)), ((0, 3), (0, 2)), ((2, 1), (2, 2)), ((2, 2), (2, 1)), ((1, 1), (1, 2)), ((1, 2), (1, 1)), ((1, 3), (2, 3)), ((2, 3), (1, 3)), ((3, 2), (3, 3)), ((3, 3), (3, 2))]",2,2,0.9306
995,2,30,"(1, 3)","(2, 0)",17,2,3,"[((2, 1), (3, 1)), ((3, 1), (2, 1)), ((2, 1), (2, 2)), ((2, 2), (2, 1)), ((2, 0), (3, 0)), ((3, 0), (2, 0)), ((0, 0), (1, 0)), ((1, 0), (0, 0)), ((1, 3), (2, 3)), ((2, 3), (1, 3)), ((0, 1), (1, 1)), ((1, 1), (0, 1)), ((1, 0), (1, 1)), ((1, 1), (1, 0)), ((1, 2), (1, 3)), ((1, 3), (1, 2)), ((1, 1), (1, 2)), ((1, 2), (1, 1)), ((2, 2), (2, 3)), ((2, 3), (2, 2)), ((3, 2), (3, 3)), ((3, 3), (3, 2)), ((0, 2), (1, 2)), ((1, 2), (0, 2)), ((0, 3), (1, 3)), ((1, 3), (0, 3)), ((2, 3), (3, 3)), ((3, 3), (2, 3)), ((0, 1), (0, 2)), ((0, 2), (0, 1)), ((3, 0), (3, 1)), ((3, 1), (3, 0)), ((0, 0), (0, 1)), ((0, 1), (0, 0))]",1,1,0.6148
995,2,31,"(0, 2)","(3, 1)",16,1,3,"[((3, 2), (3, 3)), ((3, 3), (3, 2)), ((2, 2), (3, 2)), ((3, 2), (2, 2)), ((2, 1), (2, 2)), ((2, 2), (2, 1)), ((1, 0), (2, 0)), ((2, 0), (1, 0)), ((0, 2), (1, 2)), ((1, 2), (0, 2)), ((0, 0), (1, 0)), ((1, 0), (0, 0)), ((2, 0), (2, 1)), ((2, 1), (2, 0)), ((3, 1), (3, 2)), ((3, 2), (3, 1)), ((3, 0), (3, 1)), ((3, 1), (3, 0)), ((0, 3), (1, 3)), ((1, 3), (0, 3)), ((0, 1), (0, 2)), ((0, 2), (0, 1)), ((0, 1), (1, 1)), ((1, 1), (0, 1)), ((0, 2), (0, 3)), ((0, 3), (0, 2)), ((2, 1), (3, 1)), ((3, 1), (2, 1)), ((1, 2), (2, 2)), ((2, 2), (1, 2)), ((1, 3), (2, 3)), ((2, 3), (1, 3))]",2,2,0.7634
995,2,32,"(3, 2)","(0, 1)",18,3,3,"[((3, 0), (3, 1)), ((3, 1), (3, 0)), ((1, 2), (2, 2)), ((2, 2), (1, 2)), ((0, 1), (1, 1)), ((1, 1), (0, 1)), ((1, 0), (1, 1)), ((1, 1), (1, 0)), ((2, 3), (3, 3)), ((3, 3), (2, 3)), ((2, 1), (3, 1)), ((3, 1), (2, 1)), ((3, 1), (3, 2)), ((3, 2), (3, 1)), ((0, 0), (1, 0)), ((1, 0), (0, 0)), ((2, 1), (2, 2)), ((2, 2), (2, 1)), ((2, 2), (2, 3)), ((2, 3), (2, 2)), ((2, 2), (3, 2)), ((3, 2), (2, 2)), ((2, 0), (2, 1)), ((2, 1), (2, 0)), ((0, 2), (1, 2)), ((1, 2), (0, 2)), ((1, 0), (2, 0)), ((2, 0), (1, 0)), ((1, 2), (1, 3)), ((1, 3), (1, 2)), ((3, 2), (3, 3)), ((3, 3), (3, 2)), ((0, 3), (1, 3)), ((1, 3), (0, 3)), ((0, 2), (0, 3)), ((0, 3), (0, 2))]",5,3,2.1313
995,2,33,"(0, 2)","(3, 1)",16,1,3,"[((2, 0), (2, 1)), ((2, 1), (2, 0)), ((2, 2), (3, 2)), ((3, 2), (2, 2)), ((0, 1), (1, 1)), ((1, 1), (0, 1)), ((2, 3), (3, 3)), ((3, 3), (2, 3)), ((1, 0), (2, 0)), ((2, 0), (1, 0)), ((0, 3), (1, 3)), ((1, 3), (0, 3)), ((2, 1), (2, 2)), ((2, 2), (2, 1)), ((0, 0), (0, 1)), ((0, 1), (0, 0)), ((1, 1), (1, 2)), ((1, 2), (1, 1)), ((2, 0), (3, 0)), ((3, 0), (2, 0)), ((1, 2), (2, 2)), ((2, 2), (1, 2)), ((0, 1), (0, 2)), ((0, 2), (0, 1)), ((2, 1), (3, 1)), ((3, 1), (2, 1)), ((2, 2), (2, 3)), ((2, 3), (2, 2)), ((1, 3), (2, 3)), ((2, 3), (1, 3)), ((3, 0), (3, 1)), ((3, 1), (3, 0))]",2,2,0.7633
995,2,34,"(3, 1)","(0, 2)",18,3,3,"[((3, 1), (3, 2)), ((3, 2), (3, 1)), ((2, 2), (3, 2)), ((3, 2), (2, 2)), ((1, 3), (2, 3)), ((2, 3), (1, 3)), ((0, 1), (0, 2)), ((0, 2), (0, 1)), ((2, 0), (2, 1)), ((2, 1), (2, 0)), ((3, 0), (3, 1)), ((3, 1), (3, 0)), ((1, 2), (2, 2)), ((2, 2), (1, 2)), ((0, 2), (0, 3)), ((0, 3), (0, 2)), ((0, 3), (1, 3)), ((1, 3), (0, 3)), ((0, 2), (1, 2)), ((1, 2), (0, 2)), ((1, 1), (1, 2)), ((1, 2), (1, 1)), ((0, 0), (0, 1)), ((0, 1), (0, 0)), ((2, 3), (3, 3)), ((3, 3), (2, 3)), ((2, 2), (2, 3)), ((2, 3), (2, 2)), ((0, 0), (1, 0)), ((1, 0), (0, 0)), ((3, 2), (3, 3)), ((3, 3), (3, 2)), ((1, 0), (2, 0)), ((2, 0), (1, 0)), ((2, 0), (3, 0)), ((3, 0), (2, 0))]",5,4,1.5467
995,2,35,"(3, 1)","(0, 2)",17,2,3,"[((0, 0), (1, 0)), ((1, 0), (0, 0)), ((0, 2), (1, 2)), ((1, 2), (0, 2)), ((3, 0), (3, 1)), ((3, 1), (3, 0)), ((0, 3), (1, 3)), ((1, 3), (0, 3)), ((1, 1), (2, 1)), ((2, 1), (1, 1)), ((2, 2), (2, 3)), ((2, 3), (2, 2)), ((1, 3), (2, 3)), ((2, 3), (1, 3)), ((3, 1), (3, 2)), ((3, 2), (3, 1)), ((0, 2), (0, 3)), ((0, 3), (0, 2)), ((0, 1), (0, 2)), ((0, 2), (0, 1)), ((2, 3), (3, 3)), ((3, 3), (2, 3)), ((1, 0), (1, 1)), ((1, 1), (1, 0)), ((2, 0), (2, 1)), ((2, 1), (2, 0)), ((1, 1), (1, 2)), ((1, 2), (1, 1)), ((2, 1), (2, 2)), ((2, 2), (2, 1)), ((3, 2), (3, 3)), ((3, 3), (3, 2)), ((2, 2), (3, 2)), ((3, 2), (2, 2))]",4,5,2.297
995,2,36,"(1, 3)","(2, 0)",18,3,3,"[((0, 0), (1, 0)), ((1, 0), (0, 0)), ((0, 1), (1, 1)), ((1, 1), (0, 1)), ((2, 2), (2, 3)), ((2, 3), (2, 2)), ((3, 1), (3, 2)), ((3, 2), (3, 1)), ((1, 2), (2, 2)), ((2, 2), (1, 2)), ((1, 0), (2, 0)), ((2, 0), (1, 0)), ((2, 3), (3, 3)), ((3, 3), (2, 3)), ((2, 0), (2, 1)), ((2, 1), (2, 0)), ((2, 1), (3, 1)), ((3, 1), (2, 1)), ((2, 0), (3, 0)), ((3, 0), (2, 0)), ((3, 0), (3, 1)), ((3, 1), (3, 0)), ((1, 1), (1, 2)), ((1, 2), (1, 1)), ((0, 3), (1, 3)), ((1, 3), (0, 3)), ((0, 2), (1, 2)), ((1, 2), (0, 2)), ((2, 1), (2, 2)), ((2, 2), (2, 1)), ((0, 2), (0, 3)), ((0, 3), (0, 2)), ((3, 2), (3, 3)), ((3, 3), (3, 2)), ((0, 0), (0, 1)), ((0, 1), (0, 0))]",5,4,2.714
995,2,37,"(0, 2)","(3, 1)",16,1,3,"[((2, 3), (3, 3)), ((3, 3), (2, 3)), ((1, 1), (1, 2)), ((1, 2), (1, 1)), ((0, 1), (0, 2)), ((0, 2), (0, 1)), ((1, 3), (2, 3)), ((2, 3), (1, 3)), ((2, 1), (2, 2)), ((2, 2), (2, 1)), ((3, 0), (3, 1)), ((3, 1), (3, 0)), ((3, 2), (3, 3)), ((3, 3), (3, 2)), ((0, 0), (1, 0)), ((1, 0), (0, 0)), ((2, 2), (2, 3)), ((2, 3), (2, 2)), ((1, 2), (2, 2)), ((2, 2), (1, 2)), ((0, 2), (0, 3)), ((0, 3), (0, 2)), ((2, 0), (2, 1)), ((2, 1), (2, 0)), ((2, 0), (3, 0)), ((3, 0), (2, 0)), ((1, 0), (1, 1)), ((1, 1), (1, 0)), ((0, 0), (0, 1)), ((0, 1), (0, 0)), ((2, 2), (3, 2)), ((3, 2), (2, 2))]",3,2,1.0465
995,2,38,"(3, 2)","(0, 1)",16,1,3,"[((1, 2), (2, 2)), ((2, 2), (1, 2)), ((1, 3), (2, 3)), ((2, 3), (1, 3)), ((0, 0), (1, 0)), ((1, 0), (0, 0)), ((1, 0), (2, 0)), ((2, 0), (1, 0)), ((2, 2), (3, 2)), ((3, 2), (2, 2)), ((1, 2), (1, 3)), ((1, 3), (1, 2)), ((2, 1), (3, 1)), ((3, 1), (2, 1)), ((3, 0), (3, 1)), ((3, 1), (3, 0)), ((0, 0), (0, 1)), ((0, 1), (0, 0)), ((1, 1), (2, 1)), ((2, 1), (1, 1)), ((2, 0), (2, 1)), ((2, 1), (2, 0)), ((0, 2), (1, 2)), ((1, 2), (0, 2)), ((2, 1), (2, 2)), ((2, 2), (2, 1)), ((0, 3), (1, 3)), ((1, 3), (0, 3)), ((1, 0), (1, 1)), ((1, 1), (1, 0)), ((3, 2), (3, 3)), ((3, 3), (3, 2))]",2,2,1.9805
995,2,39,"(1, 0)","(2, 3)",17,2,3,"[((0, 1), (1, 1)), ((1, 1), (0, 1)), ((1, 1), (1, 2)), ((1, 2), (1, 1)), ((0, 1), (0, 2)), ((0, 2), (0, 1)), ((2, 0), (2, 1)), ((2, 1), (2, 0)), ((2, 2), (2, 3)), ((2, 3), (2, 2)), ((1, 3), (2, 3)), ((2, 3), (1, 3)), ((0, 0), (1, 0)), ((1, 0), (0, 0)), ((3, 1), (3, 2)), ((3, 2), (3, 1)), ((0, 3), (1, 3)), ((1, 3), (0, 3)), ((0, 0), (0, 1)), ((0, 1), (0, 0)), ((1, 2), (1, 3)), ((1, 3), (1, 2)), ((2, 1), (2, 2)), ((2, 2), (2, 1)), ((2, 0), (3, 0)), ((3, 0), (2, 0)), ((1, 2), (2, 2)), ((2, 2), (1, 2)), ((2, 3), (3, 3)), ((3, 3), (2, 3)), ((0, 2), (0, 3)), ((0, 3), (0, 2)), ((3, 0), (3, 1)), ((3, 1), (3, 0))]",4,4,1.6965
995,2,40,"(3, 1)","(0, 2)",15,0,3,"[((1, 2), (2, 2)), ((2, 2), (1, 2)), ((0, 2), (0, 3)), ((0, 3), (0, 2)), ((1, 3), (2, 3)), ((2, 3), (1, 3)), ((3, 0), (3, 1)), ((3, 1), (3, 0)), ((0, 1), (0, 2)), ((0, 2), (0, 1)), ((0, 1), (1, 1)), ((1, 1), (0, 1)), ((1, 1), (1, 2)), ((1, 2), (1, 1)), ((2, 2), (3, 2)), ((3, 2), (2, 2)), ((2, 0), (2, 1)), ((2, 1), (2, 0)), ((1, 1), (2, 1)), ((2, 1), (1, 1)), ((2, 3), (3, 3)), ((3, 3), (2, 3)), ((0, 0), (1, 0)), ((1, 0), (0, 0)), ((2, 0), (3, 0)), ((3, 0), (2, 0)), ((1, 2), (1, 3)), ((1, 3), (1, 2)), ((0, 0), (0, 1)), ((0, 1), (0, 0))]",1,1,0.2468
995,2,41,"(1, 0)","(2, 3)",17,2,3,"[((2, 0), (3, 0)), ((3, 0), (2, 0)), ((0, 0), (1, 0)), ((1, 0), (0, 0)), ((2, 2), (3, 2)), ((3, 2), (2, 2)), ((2, 3), (3, 3)), ((3, 3), (2, 3)), ((1, 0), (2, 0)), ((2, 0), (1, 0)), ((2, 2), (2, 3)), ((2, 3), (2, 2)), ((3, 2), (3, 3)), ((3, 3), (3, 2)), ((0, 1), (0, 2)), ((0, 2), (0, 1)), ((0, 3), (1, 3)), ((1, 3), (0, 3)), ((2, 1), (3, 1)), ((3, 1), (2, 1)), ((0, 0), (0, 1)), ((0, 1), (0, 0)), ((1, 0), (1, 1)), ((1, 1), (1, 0)), ((0, 2), (1, 2)), ((1, 2), (0, 2)), ((1, 1), (1, 2)), ((1, 2), (1, 1)), ((0, 2), (0, 3)), ((0, 3), (0, 2)), ((1, 2), (2, 2)), ((2, 2), (1, 2)), ((2, 1), (2, 2)), ((2, 2), (2, 1))]",4,2,0.6296
995,2,42,"(3, 1)","(0, 2)",16,1,3,"[((1, 0), (2, 0)), ((2, 0), (1, 0)), ((0, 1), (0, 2)), ((0, 2), (0, 1)), ((0, 2), (1, 2)), ((1, 2), (0, 2)), ((0, 0), (0, 1)), ((0, 1), (0, 0)), ((2, 0), (3, 0)), ((3, 0), (2, 0)), ((2, 2), (3, 2)), ((3, 2), (2, 2)), ((0, 2), (0, 3)), ((0, 3), (0, 2)), ((3, 0), (3, 1)), ((3, 1), (3, 0)), ((2, 3), (3, 3)), ((3, 3), (2, 3)), ((2, 0), (2, 1)), ((2, 1), (2, 0)), ((3, 1), (3, 2)), ((3, 2), (3, 1)), ((0, 3), (1, 3)), ((1, 3), (0, 3)), ((0, 1), (1, 1)), ((1, 1), (0, 1)), ((1, 1), (1, 2)), ((1, 2), (1, 1)), ((1, 2), (2, 2)), ((2, 2), (1, 2)), ((1, 3), (2, 3)), ((2, 3), (1, 3))]",2,2,0.6145
995,2,43,"(1, 3)","(2, 0)",17,2,3,"[((0, 0), (0, 1)), ((0, 1), (0, 0)), ((2, 3), (3, 3)), ((3, 3), (2, 3)), ((1, 0), (1, 1)), ((1, 1), (1, 0)), ((0, 0), (1, 0)), ((1, 0), (0, 0)), ((1, 2), (1, 3)), ((1, 3), (1, 2)), ((1, 0), (2, 0)), ((2, 0), (1, 0)), ((3, 1), (3, 2)), ((3, 2), (3, 1)), ((3, 0), (3, 1)), ((3, 1), (3, 0)), ((0, 2), (1, 2)), ((1, 2), (0, 2)), ((0, 2), (0, 3)), ((0, 3), (0, 2)), ((0, 3), (1, 3)), ((1, 3), (0, 3)), ((2, 0), (2, 1)), ((2, 1), (2, 0)), ((2, 2), (3, 2)), ((3, 2), (2, 2)), ((0, 1), (0, 2)), ((0, 2), (0, 1)), ((1, 2), (2, 2)), ((2, 2), (1, 2)), ((0, 1), (1, 1)), ((1, 1), (0, 1)), ((1, 3), (2, 3)), ((2, 3), (1, 3))]",4,2,0.2804
995,2,44,"(0, 1)","(3, 2)",17,2,3,"[((3, 0), (3, 1)), ((3, 1), (3, 0)), ((0, 2), (0, 3)), ((0, 3), (0, 2)), ((2, 1), (3, 1)), ((3, 1), (2, 1)), ((0, 1), (0, 2)), ((0, 2), (0, 1)), ((3, 2), (3, 3)), ((3, 3), (3, 2)), ((2, 2), (2, 3)), ((2, 3), (2, 2)), ((1, 0), (1, 1)), ((1, 1), (1, 0)), ((1, 0), (2, 0)), ((2, 0), (1, 0)), ((2, 0), (3, 0)), ((3, 0), (2, 0)), ((3, 1), (3, 2)), ((3, 2), (3, 1)), ((0, 1), (1, 1)), ((1, 1), (0, 1)), ((0, 0), (0, 1)), ((0, 1), (0, 0)), ((1, 3), (2, 3)), ((2, 3), (1, 3)), ((2, 3), (3, 3)), ((3, 3), (2, 3)), ((2, 2), (3, 2)), ((3, 2), (2, 2)), ((1, 2), (1, 3)), ((1, 3), (1, 2)), ((0, 3), (1, 3)), ((1, 3), (0, 3))]",3,3,2.2316
995,2,45,"(0, 2)","(3, 1)",18,3,3,"[((1, 1), (1, 2)), ((1, 2), (1, 1)), ((2, 3), (3, 3)), ((3, 3), (2, 3)), ((3, 2), (3, 3)), ((3, 3), (3, 2)), ((3, 0), (3, 1)), ((3, 1), (3, 0)), ((0, 2), (1, 2)), ((1, 2), (0, 2)), ((2, 0), (3, 0)), ((3, 0), (2, 0)), ((3, 1), (3, 2)), ((3, 2), (3, 1)), ((2, 2), (3, 2)), ((3, 2), (2, 2)), ((0, 2), (0, 3)), ((0, 3), (0, 2)), ((2, 0), (2, 1)), ((2, 1), (2, 0)), ((1, 1), (2, 1)), ((2, 1), (1, 1)), ((0, 3), (1, 3)), ((1, 3), (0, 3)), ((1, 0), (2, 0)), ((2, 0), (1, 0)), ((2, 1), (3, 1)), ((3, 1), (2, 1)), ((0, 1), (1, 1)), ((1, 1), (0, 1)), ((1, 2), (2, 2)), ((2, 2), (1, 2)), ((0, 0), (0, 1)), ((0, 1), (0, 0)), ((1, 3), (2, 3)), ((2, 3), (1, 3))]",6,5,1.9126
995,2,46,"(1, 0)","(2, 3)",18,3,3,"[((3, 2), (3, 3)), ((3, 3), (3, 2)), ((1, 1), (1, 2)), ((1, 2), (1, 1)), ((0, 1), (1, 1)), ((1, 1), (0, 1)), ((1, 2), (1, 3)), ((1, 3), (1, 2)), ((0, 0), (0, 1)), ((0, 1), (0, 0)), ((2, 0), (3, 0)), ((3, 0), (2, 0)), ((2, 3), (3, 3)), ((3, 3), (2, 3)), ((2, 2), (2, 3)), ((2, 3), (2, 2)), ((3, 0), (3, 1)), ((3, 1), (3, 0)), ((1, 2), (2, 2)), ((2, 2), (1, 2)), ((2, 2), (3, 2)), ((3, 2), (2, 2)), ((1, 0), (1, 1)), ((1, 1), (1, 0)), ((1, 3), (2, 3)), ((2, 3), (1, 3)), ((2, 1), (3, 1)), ((3, 1), (2, 1)), ((3, 1), (3, 2)), ((3, 2), (3, 1)), ((1, 1), (2, 1)), ((2, 1), (1, 1)), ((0, 2), (0, 3)), ((0, 3), (0, 2)), ((0, 2), (1, 2)), ((1, 2), (0, 2))]",6,5,2.7138
995,2,47,"(3, 2)","(0, 1)",15,0,3,"[((3, 1), (3, 2)), ((3, 2), (3, 1)), ((0, 3), (1, 3)), ((1, 3), (0, 3)), ((0, 2), (1, 2)), ((1, 2), (0, 2)), ((2, 0), (2, 1)), ((2, 1), (2, 0)), ((0, 0), (1, 0)), ((1, 0), (0, 0)), ((1, 3), (2, 3)), ((2, 3), (1, 3)), ((2, 3), (3, 3)), ((3, 3), (2, 3)), ((2, 1), (3, 1)), ((3, 1), (2, 1)), ((2, 0), (3, 0)), ((3, 0), (2, 0)), ((1, 0), (1, 1)), ((1, 1), (1, 0)), ((1, 0), (2, 0)), ((2, 0), (1, 0)), ((3, 2), (3, 3)), ((3, 3), (3, 2)), ((0, 0), (0, 1)), ((0, 1), (0, 0)), ((1, 2), (1, 3)), ((1, 3), (1, 2)), ((1, 2), (2, 2)), ((2, 2), (1, 2))]",1,1,0.2137
995,2,48,"(2, 3)","(1, 0)",17,2,3,"[((3, 0), (3, 1)), ((3, 1), (3, 0)), ((2, 2), (2, 3)), ((2, 3), (2, 2)), ((3, 2), (3, 3)), ((3, 3), (3, 2)), ((2, 3), (3, 3)), ((3, 3), (2, 3)), ((2, 2), (3, 2)), ((3, 2), (2, 2)), ((1, 1), (1, 2)), ((1, 2), (1, 1)), ((0, 0), (1, 0)), ((1, 0), (0, 0)), ((0, 3), (1, 3)), ((1, 3), (0, 3)), ((0, 1), (0, 2)), ((0, 2), (0, 1)), ((0, 1), (1, 1)), ((1, 1), (0, 1)), ((1, 3), (2, 3)), ((2, 3), (1, 3)), ((2, 0), (3, 0)), ((3, 0), (2, 0)), ((1, 2), (1, 3)), ((1, 3), (1, 2)), ((3, 1), (3, 2)), ((3, 2), (3, 1)), ((0, 0), (0, 1)), ((0, 1), (0, 0)), ((1, 1), (2, 1)), ((2, 1), (1, 1)), ((2, 0), (2, 1)), ((2, 1), (2, 0))]",5,3,2.9291
995,2,49,"(1, 0)","(2, 3)",18,3,3,"[((1, 2), (1, 3)), ((1, 3), (1, 2)), ((2, 2), (2, 3)), ((2, 3), (2, 2)), ((1, 0), (1, 1)), ((1, 1), (1, 0)), ((0, 2), (0, 3)), ((0, 3), (0, 2)), ((2, 0), (2, 1)), ((2, 1), (2, 0)), ((3, 0), (3, 1)), ((3, 1), (3, 0)), ((0, 1), (1, 1)), ((1, 1), (0, 1)), ((2, 2), (3, 2)), ((3, 2), (2, 2)), ((2, 0), (3, 0)), ((3, 0), (2, 0)), ((0, 1), (0, 2)), ((0, 2), (0, 1)), ((1, 3), (2, 3)), ((2, 3), (1, 3)), ((0, 2), (1, 2)), ((1, 2), (0, 2)), ((3, 2), (3, 3)), ((3, 3), (3, 2)), ((3, 1), (3, 2)), ((3, 2), (3, 1)), ((1, 2), (2, 2)), ((2, 2), (1, 2)), ((2, 3), (3, 3)), ((3, 3), (2, 3)), ((0, 0), (0, 1)), ((0, 1), (0, 0)), ((1, 1), (2, 1)), ((2, 1), (1, 1))]",6,6,3.4802
995,2,50,"(0, 1)","(3, 2)",16,1,3,"[((2, 0), (3, 0)), ((3, 0), (2, 0)), ((1, 1), (1, 2)), ((1, 2), (1, 1)), ((0, 0), (0, 1)), ((0, 1), (0, 0)), ((1, 0), (1, 1)), ((1, 1), (1, 0)), ((2, 1), (2, 2)), ((2, 2), (2, 1)), ((1, 2), (1, 3)), ((1, 3), (1, 2)), ((0, 0), (1, 0)), ((1, 0), (0, 0)), ((2, 2), (2, 3)), ((2, 3), (2, 2)), ((2, 3), (3, 3)), ((3, 3), (2, 3)), ((3, 0), (3, 1)), ((3, 1), (3, 0)), ((3, 1), (3, 2)), ((3, 2), (3, 1)), ((2, 2), (3, 2)), ((3, 2), (2, 2)), ((0, 2), (1, 2)), ((1, 2), (0, 2)), ((3, 2), (3, 3)), ((3, 3), (3, 2)), ((1, 2), (2, 2)), ((2, 2), (1, 2)), ((0, 3), (1, 3)), ((1, 3), (0, 3))]",2,2,0.8638
995,2,51,"(1, 0)","(2, 3)",17,2,3,"[((0, 0), (0, 1)), ((0, 1), (0, 0)), ((1, 0), (2, 0)), ((2, 0), (1, 0)), ((2, 0), (3, 0)), ((3, 0), (2, 0)), ((0, 1), (0, 2)), ((0, 2), (0, 1)), ((1, 2), (1, 3)), ((1, 3), (1, 2)), ((2, 1), (2, 2)), ((2, 2), (2, 1)), ((0, 2), (1, 2)), ((1, 2), (0, 2)), ((2, 2), (3, 2)), ((3, 2), (2, 2)), ((2, 3), (3, 3)), ((3, 3), (2, 3)), ((0, 1), (1, 1)), ((1, 1), (0, 1)), ((2, 0), (2, 1)), ((2, 1), (2, 0)), ((3, 1), (3, 2)), ((3, 2), (3, 1)), ((3, 2), (3, 3)), ((3, 3), (3, 2)), ((0, 2), (0, 3)), ((0, 3), (0, 2)), ((1, 3), (2, 3)), ((2, 3), (1, 3)), ((0, 0), (1, 0)), ((1, 0), (0, 0)), ((1, 0), (1, 1)), ((1, 1), (1, 0))]",5,3,0.5972
995,2,52,"(0, 1)","(3, 2)",15,0,3,"[((1, 0), (1, 1)), ((1, 1), (1, 0)), ((0, 2), (0, 3)), ((0, 3), (0, 2)), ((3, 0), (3, 1)), ((3, 1), (3, 0)), ((2, 2), (2, 3)), ((2, 3), (2, 2)), ((3, 2), (3, 3)), ((3, 3), (3, 2)), ((2, 1), (3, 1)), ((3, 1), (2, 1)), ((1, 2), (1, 3)), ((1, 3), (1, 2)), ((1, 1), (1, 2)), ((1, 2), (1, 1)), ((1, 3), (2, 3)), ((2, 3), (1, 3)), ((3, 1), (3, 2)), ((3, 2), (3, 1)), ((0, 1), (0, 2)), ((0, 2), (0, 1)), ((2, 0), (2, 1)), ((2, 1), (2, 0)), ((2, 3), (3, 3)), ((3, 3), (2, 3)), ((0, 0), (0, 1)), ((0, 1), (0, 0)), ((0, 1), (1, 1)), ((1, 1), (0, 1))]",1,1,0.5471
995,2,53,"(3, 1)","(0, 2)",17,2,3,"[((0, 2), (1, 2)), ((1, 2), (0, 2)), ((1, 0), (1, 1)), ((1, 1), (1, 0)), ((3, 2), (3, 3)), ((3, 3), (3, 2)), ((2, 2), (3, 2)), ((3, 2), (2, 2)), ((3, 0), (3, 1)), ((3, 1), (3, 0)), ((2, 0), (2, 1)), ((2, 1), (2, 0)), ((2, 1), (2, 2)), ((2, 2), (2, 1)), ((0, 0), (0, 1)), ((0, 1), (0, 0)), ((2, 0), (3, 0)), ((3, 0), (2, 0)), ((1, 1), (1, 2)), ((1, 2), (1, 1)), ((0, 0), (1, 0)), ((1, 0), (0, 0)), ((0, 1), (1, 1)), ((1, 1), (0, 1)), ((1, 2), (1, 3)), ((1, 3), (1, 2)), ((1, 0), (2, 0)), ((2, 0), (1, 0)), ((3, 1), (3, 2)), ((3, 2), (3, 1)), ((0, 2), (0, 3)), ((0, 3), (0, 2)), ((2, 2), (2, 3)), ((2, 3), (2, 2))]",4,3,1.8634
995,2,54,"(2, 0)","(1, 3)",18,3,3,"[((3, 1), (3, 2)), ((3, 2), (3, 1)), ((3, 2), (3, 3)), ((3, 3), (3, 2)), ((1, 1), (1, 2)), ((1, 2), (1, 1)), ((0, 2), (0, 3)), ((0, 3), (0, 2)), ((0, 0), (0, 1)), ((0, 1), (0, 0)), ((2, 1), (2, 2)), ((2, 2), (2, 1)), ((1, 2), (1, 3)), ((1, 3), (1, 2)), ((0, 2), (1, 2)), ((1, 2), (0, 2)), ((2, 1), (3, 1)), ((3, 1), (2, 1)), ((2, 2), (2, 3)), ((2, 3), (2, 2)), ((2, 3), (3, 3)), ((3, 3), (2, 3)), ((0, 0), (1, 0)), ((1, 0), (0, 0)), ((0, 3), (1, 3)), ((1, 3), (0, 3)), ((3, 0), (3, 1)), ((3, 1), (3, 0)), ((2, 0), (3, 0)), ((3, 0), (2, 0)), ((1, 1), (2, 1)), ((2, 1), (1, 1)), ((1, 0), (2, 0)), ((2, 0), (1, 0)), ((2, 2), (3, 2)), ((3, 2), (2, 2))]",6,5,1.7306
995,3,1,"(3, 2)","(0, 1)",18,3,1,"[((0, 2), (1, 2)), ((1, 2), (0, 2)), ((0, 3), (1, 3)), ((1, 3), (0, 3)), ((3, 2), (3, 3)), ((3, 3), (3, 2)), ((2, 0), (2, 1)), ((2, 1), (2, 0)), ((2, 0), (3, 0)), ((3, 0), (2, 0)), ((2, 1), (2, 2)), ((2, 2), (2, 1)), ((0, 1), (1, 1)), ((1, 1), (0, 1)), ((1, 1), (2, 1)), ((2, 1), (1, 1)), ((2, 2), (2, 3)), ((2, 3), (2, 2)), ((0, 0), (0, 1)), ((0, 1), (0, 0)), ((1, 1), (1, 2)), ((1, 2), (1, 1)), ((1, 0), (2, 0)), ((2, 0), (1, 0)), ((2, 3), (3, 3)), ((3, 3), (2, 3)), ((2, 1), (3, 1)), ((3, 1), (2, 1)), ((3, 0), (3, 1)), ((3, 1), (3, 0)), ((1, 2), (1, 3)), ((1, 3), (1, 2)), ((0, 2), (0, 3)), ((0, 3), (0, 2)), ((2, 2), (3, 2)), ((3, 2), (2, 2))]",6,4,1.5651
995,3,2,"(1, 0)","(2, 3)",16,1,1,"[((1, 3), (2, 3)), ((2, 3), (1, 3)), ((3, 0), (3, 1)), ((3, 1), (3, 0)), ((0, 0), (1, 0)), ((1, 0), (0, 0)), ((3, 2), (3, 3)), ((3, 3), (3, 2)), ((1, 2), (2, 2)), ((2, 2), (1, 2)), ((2, 2), (3, 2)), ((3, 2), (2, 2)), ((0, 3), (1, 3)), ((1, 3), (0, 3)), ((2, 1), (2, 2)), ((2, 2), (2, 1)), ((1, 0), (1, 1)), ((1, 1), (1, 0)), ((2, 0), (2, 1)), ((2, 1), (2, 0)), ((0, 2), (0, 3)), ((0, 3), (0, 2)), ((0, 1), (0, 2)), ((0, 2), (0, 1)), ((1, 0), (2, 0)), ((2, 0), (1, 0)), ((2, 1), (3, 1)), ((3, 1), (2, 1)), ((2, 3), (3, 3)), ((3, 3), (2, 3)), ((2, 2), (2, 3)), ((2, 3), (2, 2))]",2,3,1.2135
995,3,3,"(2, 0)","(1, 3)",16,1,1,"[((1, 1), (2, 1)), ((2, 1), (1, 1)), ((2, 2), (2, 3)), ((2, 3), (2, 2)), ((2, 1), (2, 2)), ((2, 2), (2, 1)), ((2, 2), (3, 2)), ((3, 2), (2, 2)), ((1, 0), (2, 0)), ((2, 0), (1, 0)), ((0, 0), (0, 1)), ((0, 1), (0, 0)), ((0, 2), (1, 2)), ((1, 2), (0, 2)), ((0, 1), (1, 1)), ((1, 1), (0, 1)), ((1, 2), (2, 2)), ((2, 2), (1, 2)), ((0, 0), (1, 0)), ((1, 0), (0, 0)), ((3, 0), (3, 1)), ((3, 1), (3, 0)), ((2, 0), (2, 1)), ((2, 1), (2, 0)), ((2, 0), (3, 0)), ((3, 0), (2, 0)), ((2, 3), (3, 3)), ((3, 3), (2, 3)), ((0, 3), (1, 3)), ((1, 3), (0, 3)), ((0, 2), (0, 3)), ((0, 3), (0, 2))]",2,2,1.9316
995,3,4,"(0, 2)","(3, 1)",18,3,1,"[((0, 3), (1, 3)), ((1, 3), (0, 3)), ((3, 0), (3, 1)), ((3, 1), (3, 0)), ((3, 2), (3, 3)), ((3, 3), (3, 2)), ((1, 2), (1, 3)), ((1, 3), (1, 2)), ((0, 1), (0, 2)), ((0, 2), (0, 1)), ((3, 1), (3, 2)), ((3, 2), (3, 1)), ((1, 2), (2, 2)), ((2, 2), (1, 2)), ((0, 1), (1, 1)), ((1, 1), (0, 1)), ((2, 1), (3, 1)), ((3, 1), (2, 1)), ((2, 2), (2, 3)), ((2, 3), (2, 2)), ((0, 0), (0, 1)), ((0, 1), (0, 0)), ((0, 2), (0, 3)), ((0, 3), (0, 2)), ((1, 0), (2, 0)), ((2, 0), (1, 0)), ((1, 3), (2, 3)), ((2, 3), (1, 3)), ((1, 0), (1, 1)), ((1, 1), (1, 0)), ((2, 0), (3, 0)), ((3, 0), (2, 0)), ((1, 1), (2, 1)), ((2, 1), (1, 1)), ((2, 1), (2, 2)), ((2, 2), (2, 1))]",6,3,1.4631
995,3,5,"(0, 1)","(3, 2)",16,1,1,"[((0, 2), (0, 3)), ((0, 3), (0, 2)), ((0, 0), (1, 0)), ((1, 0), (0, 0)), ((1, 0), (1, 1)), ((1, 1), (1, 0)), ((1, 1), (1, 2)), ((1, 2), (1, 1)), ((2, 1), (2, 2)), ((2, 2), (2, 1)), ((2, 3), (3, 3)), ((3, 3), (2, 3)), ((3, 2), (3, 3)), ((3, 3), (3, 2)), ((0, 2), (1, 2)), ((1, 2), (0, 2)), ((3, 0), (3, 1)), ((3, 1), (3, 0)), ((0, 0), (0, 1)), ((0, 1), (0, 0)), ((0, 1), (1, 1)), ((1, 1), (0, 1)), ((1, 3), (2, 3)), ((2, 3), (1, 3)), ((2, 0), (2, 1)), ((2, 1), (2, 0)), ((2, 0), (3, 0)), ((3, 0), (2, 0)), ((1, 1), (2, 1)), ((2, 1), (1, 1)), ((0, 3), (1, 3)), ((1, 3), (0, 3))]",2,2,1.9972
995,3,6,"(0, 2)","(3, 1)",15,0,1,"[((1, 1), (1, 2)), ((1, 2), (1, 1)), ((2, 0), (3, 0)), ((3, 0), (2, 0)), ((0, 2), (1, 2)), ((1, 2), (0, 2)), ((1, 1), (2, 1)), ((2, 1), (1, 1)), ((3, 2), (3, 3)), ((3, 3), (3, 2)), ((1, 2), (1, 3)), ((1, 3), (1, 2)), ((3, 0), (3, 1)), ((3, 1), (3, 0)), ((1, 0), (2, 0)), ((2, 0), (1, 0)), ((2, 2), (2, 3)), ((2, 3), (2, 2)), ((2, 1), (3, 1)), ((3, 1), (2, 1)), ((0, 3), (1, 3)), ((1, 3), (0, 3)), ((0, 1), (0, 2)), ((0, 2), (0, 1)), ((0, 0), (1, 0)), ((1, 0), (0, 0)), ((1, 2), (2, 2)), ((2, 2), (1, 2)), ((2, 2), (3, 2)), ((3, 2), (2, 2))]",1,1,0.3296
995,3,7,"(0, 1)","(3, 2)",15,0,1,"[((0, 2), (0, 3)), ((0, 3), (0, 2)), ((1, 2), (2, 2)), ((2, 2), (1, 2)), ((1, 1), (2, 1)), ((2, 1), (1, 1)), ((3, 1), (3, 2)), ((3, 2), (3, 1)), ((3, 0), (3, 1)), ((3, 1), (3, 0)), ((0, 1), (1, 1)), ((1, 1), (0, 1)), ((2, 0), (3, 0)), ((3, 0), (2, 0)), ((1, 0), (2, 0)), ((2, 0), (1, 0)), ((3, 2), (3, 3)), ((3, 3), (3, 2)), ((0, 0), (0, 1)), ((0, 1), (0, 0)), ((2, 3), (3, 3)), ((3, 3), (2, 3)), ((0, 3), (1, 3)), ((1, 3), (0, 3)), ((0, 2), (1, 2)), ((1, 2), (0, 2)), ((1, 3), (2, 3)), ((2, 3), (1, 3)), ((2, 1), (3, 1)), ((3, 1), (2, 1))]",1,1,0.2984
995,3,8,"(1, 3)","(2, 0)",15,0,1,"[((0, 2), (1, 2)), ((1, 2), (0, 2)), ((3, 0), (3, 1)), ((3, 1), (3, 0)), ((3, 1), (3, 2)), ((3, 2), (3, 1)), ((0, 0), (1, 0)), ((1, 0), (0, 0)), ((3, 2), (3, 3)), ((3, 3), (3, 2)), ((0, 0), (0, 1)), ((0, 1), (0, 0)), ((0, 1), (1, 1)), ((1, 1), (0, 1)), ((0, 2), (0, 3)), ((0, 3), (0, 2)), ((1, 3), (2, 3)), ((2, 3), (1, 3)), ((0, 1), (0, 2)), ((0, 2), (0, 1)), ((2, 2), (3, 2)), ((3, 2), (2, 2)), ((2, 0), (3, 0)), ((3, 0), (2, 0)), ((1, 2), (1, 3)), ((1, 3), (1, 2)), ((2, 1), (2, 2)), ((2, 2), (2, 1)), ((2, 3), (3, 3)), ((3, 3), (2, 3))]",1,2,1.2136
995,3,9,"(3, 2)","(0, 1)",18,3,1,"[((1, 2), (2, 2)), ((2, 2), (1, 2)), ((0, 1), (1, 1)), ((1, 1), (0, 1)), ((3, 2), (3, 3)), ((3, 3), (3, 2)), ((1, 1), (1, 2)), ((1, 2), (1, 1)), ((0, 0), (1, 0)), ((1, 0), (0, 0)), ((2, 1), (2, 2)), ((2, 2), (2, 1)), ((3, 0), (3, 1)), ((3, 1), (3, 0)), ((2, 3), (3, 3)), ((3, 3), (2, 3)), ((2, 2), (3, 2)), ((3, 2), (2, 2)), ((2, 0), (2, 1)), ((2, 1), (2, 0)), ((1, 3), (2, 3)), ((2, 3), (1, 3)), ((2, 2), (2, 3)), ((2, 3), (2, 2)), ((1, 0), (2, 0)), ((2, 0), (1, 0)), ((0, 0), (0, 1)), ((0, 1), (0, 0)), ((2, 0), (3, 0)), ((3, 0), (2, 0)), ((0, 3), (1, 3)), ((1, 3), (0, 3)), ((2, 1), (3, 1)), ((3, 1), (2, 1)), ((0, 2), (0, 3)), ((0, 3), (0, 2))]",6,2,2.0315
995,3,10,"(2, 0)","(1, 3)",16,1,1,"[((0, 2), (1, 2)), ((1, 2), (0, 2)), ((0, 0), (0, 1)), ((0, 1), (0, 0)), ((2, 0), (2, 1)), ((2, 1), (2, 0)), ((0, 3), (1, 3)), ((1, 3), (0, 3)), ((1, 2), (2, 2)), ((2, 2), (1, 2)), ((3, 1), (3, 2)), ((3, 2), (3, 1)), ((1, 1), (1, 2)), ((1, 2), (1, 1)), ((0, 1), (0, 2)), ((0, 2), (0, 1)), ((1, 2), (1, 3)), ((1, 3), (1, 2)), ((1, 0), (1, 1)), ((1, 1), (1, 0)), ((0, 1), (1, 1)), ((1, 1), (0, 1)), ((2, 0), (3, 0)), ((3, 0), (2, 0)), ((2, 2), (2, 3)), ((2, 3), (2, 2)), ((2, 1), (2, 2)), ((2, 2), (2, 1)), ((2, 3), (3, 3)), ((3, 3), (2, 3)), ((2, 1), (3, 1)), ((3, 1), (2, 1))]",3,4,2.5624
995,3,11,"(3, 1)","(0, 2)",18,3,1,"[((1, 2), (1, 3)), ((1, 3), (1, 2)), ((2, 2), (3, 2)), ((3, 2), (2, 2)), ((2, 1), (3, 1)), ((3, 1), (2, 1)), ((0, 3), (1, 3)), ((1, 3), (0, 3)), ((2, 3), (3, 3)), ((3, 3), (2, 3)), ((2, 0), (3, 0)), ((3, 0), (2, 0)), ((1, 0), (1, 1)), ((1, 1), (1, 0)), ((2, 0), (2, 1)), ((2, 1), (2, 0)), ((0, 1), (0, 2)), ((0, 2), (0, 1)), ((3, 0), (3, 1)), ((3, 1), (3, 0)), ((3, 1), (3, 2)), ((3, 2), (3, 1)), ((3, 2), (3, 3)), ((3, 3), (3, 2)), ((0, 1), (1, 1)), ((1, 1), (0, 1)), ((0, 2), (1, 2)), ((1, 2), (0, 2)), ((0, 0), (0, 1)), ((0, 1), (0, 0)), ((0, 0), (1, 0)), ((1, 0), (0, 0)), ((2, 1), (2, 2)), ((2, 2), (2, 1)), ((1, 3), (2, 3)), ((2, 3), (1, 3))]",5,4,2.8981
995,3,12,"(2, 0)","(1, 3)",18,3,1,"[((2, 1), (2, 2)), ((2, 2), (2, 1)), ((0, 2), (1, 2)), ((1, 2), (0, 2)), ((1, 1), (2, 1)), ((2, 1), (1, 1)), ((0, 0), (1, 0)), ((1, 0), (0, 0)), ((1, 1), (1, 2)), ((1, 2), (1, 1)), ((1, 0), (1, 1)), ((1, 1), (1, 0)), ((1, 2), (1, 3)), ((1, 3), (1, 2)), ((0, 1), (0, 2)), ((0, 2), (0, 1)), ((2, 0), (3, 0)), ((3, 0), (2, 0)), ((2, 1), (3, 1)), ((3, 1), (2, 1)), ((0, 2), (0, 3)), ((0, 3), (0, 2)), ((0, 3), (1, 3)), ((1, 3), (0, 3)), ((2, 2), (3, 2)), ((3, 2), (2, 2)), ((1, 3), (2, 3)), ((2, 3), (1, 3)), ((1, 0), (2, 0)), ((2, 0), (1, 0)), ((3, 0), (3, 1)), ((3, 1), (3, 0)), ((2, 2), (2, 3)), ((2, 3), (2, 2)), ((3, 2), (3, 3)), ((3, 3), (3, 2))]",6,3,4.1624
995,3,13,"(0, 1)","(3, 2)",16,1,1,"[((0, 0), (1, 0)), ((1, 0), (0, 0)), ((0, 2), (1, 2)), ((1, 2), (0, 2)), ((0, 2), (0, 3)), ((0, 3), (0, 2)), ((0, 1), (0, 2)), ((0, 2), (0, 1)), ((3, 1), (3, 2)), ((3, 2), (3, 1)), ((2, 3), (3, 3)), ((3, 3), (2, 3)), ((1, 3), (2, 3)), ((2, 3), (1, 3)), ((2, 1), (3, 1)), ((3, 1), (2, 1)), ((2, 1), (2, 2)), ((2, 2), (2, 1)), ((3, 2), (3, 3)), ((3, 3), (3, 2)), ((3, 0), (3, 1)), ((3, 1), (3, 0)), ((1, 1), (1, 2)), ((1, 2), (1, 1)), ((1, 0), (1, 1)), ((1, 1), (1, 0)), ((2, 2), (2, 3)), ((2, 3), (2, 2)), ((2, 0), (3, 0)), ((3, 0), (2, 0)), ((1, 1), (2, 1)), ((2, 1), (1, 1))]",2,3,1.7983
995,3,14,"(3, 2)","(0, 1)",17,2,1,"[((0, 2), (1, 2)), ((1, 2), (0, 2)), ((2, 2), (3, 2)), ((3, 2), (2, 2)), ((0, 0), (1, 0)), ((1, 0), (0, 0)), ((1, 3), (2, 3)), ((2, 3), (1, 3)), ((1, 1), (1, 2)), ((1, 2), (1, 1)), ((0, 2), (0, 3)), ((0, 3), (0, 2)), ((3, 2), (3, 3)), ((3, 3), (3, 2)), ((0, 1), (0, 2)), ((0, 2), (0, 1)), ((2, 1), (3, 1)), ((3, 1), (2, 1)), ((2, 0), (2, 1)), ((2, 1), (2, 0)), ((0, 3), (1, 3)), ((1, 3), (0, 3)), ((1, 2), (1, 3)), ((1, 3), (1, 2)), ((2, 0), (3, 0)), ((3, 0), (2, 0)), ((1, 0), (1, 1)), ((1, 1), (1, 0)), ((2, 1), (2, 2)), ((2, 2), (2, 1)), ((0, 1), (1, 1)), ((1, 1), (0, 1)), ((1, 1), (2, 1)), ((2, 1), (1, 1))]",3,4,1.5613
995,3,15,"(0, 1)","(3, 2)",17,2,1,"[((3, 0), (3, 1)), ((3, 1), (3, 0)), ((2, 2), (3, 2)), ((3, 2), (2, 2)), ((0, 3), (1, 3)), ((1, 3), (0, 3)), ((3, 1), (3, 2)), ((3, 2), (3, 1)), ((0, 2), (0, 3)), ((0, 3), (0, 2)), ((1, 0), (2, 0)), ((2, 0), (1, 0)), ((1, 1), (1, 2)), ((1, 2), (1, 1)), ((2, 2), (2, 3)), ((2, 3), (2, 2)), ((2, 0), (2, 1)), ((2, 1), (2, 0)), ((0, 0), (0, 1)), ((0, 1), (0, 0)), ((1, 2), (2, 2)), ((2, 2), (1, 2)), ((0, 0), (1, 0)), ((1, 0), (0, 0)), ((3, 2), (3, 3)), ((3, 3), (3, 2)), ((1, 3), (2, 3)), ((2, 3), (1, 3)), ((1, 2), (1, 3)), ((1, 3), (1, 2)), ((0, 1), (1, 1)), ((1, 1), (0, 1)), ((0, 1), (0, 2)), ((0, 2), (0, 1))]",4,4,1.3308
995,3,16,"(1, 0)","(2, 3)",18,3,1,"[((0, 3), (1, 3)), ((1, 3), (0, 3)), ((0, 2), (0, 3)), ((0, 3), (0, 2)), ((1, 0), (2, 0)), ((2, 0), (1, 0)), ((1, 2), (2, 2)), ((2, 2), (1, 2)), ((1, 0), (1, 1)), ((1, 1), (1, 0)), ((0, 2), (1, 2)), ((1, 2), (0, 2)), ((1, 2), (1, 3)), ((1, 3), (1, 2)), ((2, 3), (3, 3)), ((3, 3), (2, 3)), ((2, 1), (3, 1)), ((3, 1), (2, 1)), ((0, 1), (0, 2)), ((0, 2), (0, 1)), ((3, 1), (3, 2)), ((3, 2), (3, 1)), ((2, 0), (3, 0)), ((3, 0), (2, 0)), ((2, 1), (2, 2)), ((2, 2), (2, 1)), ((2, 0), (2, 1)), ((2, 1), (2, 0)), ((0, 0), (1, 0)), ((1, 0), (0, 0)), ((2, 2), (2, 3)), ((2, 3), (2, 2)), ((0, 1), (1, 1)), ((1, 1), (0, 1)), ((1, 1), (2, 1)), ((2, 1), (1, 1))]",6,3,1.9945
995,3,17,"(3, 2)","(0, 1)",17,2,1,"[((1, 0), (1, 1)), ((1, 1), (1, 0)), ((2, 1), (2, 2)), ((2, 2), (2, 1)), ((2, 0), (3, 0)), ((3, 0), (2, 0)), ((2, 0), (2, 1)), ((2, 1), (2, 0)), ((1, 2), (2, 2)), ((2, 2), (1, 2)), ((2, 1), (3, 1)), ((3, 1), (2, 1)), ((0, 1), (0, 2)), ((0, 2), (0, 1)), ((0, 0), (1, 0)), ((1, 0), (0, 0)), ((2, 3), (3, 3)), ((3, 3), (2, 3)), ((0, 2), (0, 3)), ((0, 3), (0, 2)), ((0, 3), (1, 3)), ((1, 3), (0, 3)), ((0, 1), (1, 1)), ((1, 1), (0, 1)), ((2, 2), (3, 2)), ((3, 2), (2, 2)), ((1, 1), (1, 2)), ((1, 2), (1, 1)), ((1, 2), (1, 3)), ((1, 3), (1, 2)), ((1, 3), (2, 3)), ((2, 3), (1, 3)), ((3, 2), (3, 3)), ((3, 3), (3, 2))]",4,4,2.7646
995,3,18,"(0, 2)","(3, 1)",16,1,1,"[((3, 0), (3, 1)), ((3, 1), (3, 0)), ((2, 2), (2, 3)), ((2, 3), (2, 2)), ((1, 3), (2, 3)), ((2, 3), (1, 3)), ((1, 2), (1, 3)), ((1, 3), (1, 2)), ((2, 0), (2, 1)), ((2, 1), (2, 0)), ((0, 2), (1, 2)), ((1, 2), (0, 2)), ((1, 2), (2, 2)), ((2, 2), (1, 2)), ((1, 0), (2, 0)), ((2, 0), (1, 0)), ((3, 1), (3, 2)), ((3, 2), (3, 1)), ((2, 0), (3, 0)), ((3, 0), (2, 0)), ((1, 1), (1, 2)), ((1, 2), (1, 1)), ((0, 2), (0, 3)), ((0, 3), (0, 2)), ((0, 0), (1, 0)), ((1, 0), (0, 0)), ((0, 1), (0, 2)), ((0, 2), (0, 1)), ((3, 2), (3, 3)), ((3, 3), (3, 2)), ((1, 1), (2, 1)), ((2, 1), (1, 1))]",3,3,2.347
995,3,19,"(0, 2)","(3, 1)",17,2,1,"[((1, 3), (2, 3)), ((2, 3), (1, 3)), ((0, 0), (1, 0)), ((1, 0), (0, 0)), ((3, 2), (3, 3)), ((3, 3), (3, 2)), ((0, 2), (1, 2)), ((1, 2), (0, 2)), ((2, 3), (3, 3)), ((3, 3), (2, 3)), ((2, 1), (3, 1)), ((3, 1), (2, 1)), ((3, 1), (3, 2)), ((3, 2), (3, 1)), ((1, 2), (1, 3)), ((1, 3), (1, 2)), ((0, 2), (0, 3)), ((0, 3), (0, 2)), ((3, 0), (3, 1)), ((3, 1), (3, 0)), ((2, 1), (2, 2)), ((2, 2), (2, 1)), ((1, 1), (1, 2)), ((1, 2), (1, 1)), ((0, 3), (1, 3)), ((1, 3), (0, 3)), ((2, 0), (3, 0)), ((3, 0), (2, 0)), ((2, 2), (3, 2)), ((3, 2), (2, 2)), ((1, 0), (2, 0)), ((2, 0), (1, 0)), ((0, 1), (0, 2)), ((0, 2), (0, 1))]",4,3,2.2469
995,3,20,"(1, 0)","(2, 3)",17,2,1,"[((0, 0), (1, 0)), ((1, 0), (0, 0)), ((1, 2), (1, 3)), ((1, 3), (1, 2)), ((3, 2), (3, 3)), ((3, 3), (3, 2)), ((1, 0), (1, 1)), ((1, 1), (1, 0)), ((0, 3), (1, 3)), ((1, 3), (0, 3)), ((3, 1), (3, 2)), ((3, 2), (3, 1)), ((0, 1), (1, 1)), ((1, 1), (0, 1)), ((0, 0), (0, 1)), ((0, 1), (0, 0)), ((2, 2), (3, 2)), ((3, 2), (2, 2)), ((2, 3), (3, 3)), ((3, 3), (2, 3)), ((2, 1), (3, 1)), ((3, 1), (2, 1)), ((0, 1), (0, 2)), ((0, 2), (0, 1)), ((1, 0), (2, 0)), ((2, 0), (1, 0)), ((3, 0), (3, 1)), ((3, 1), (3, 0)), ((1, 1), (1, 2)), ((1, 2), (1, 1)), ((2, 0), (3, 0)), ((3, 0), (2, 0)), ((1, 3), (2, 3)), ((2, 3), (1, 3))]",5,3,2.1976
995,3,21,"(1, 3)","(2, 0)",17,2,1,"[((1, 2), (1, 3)), ((1, 3), (1, 2)), ((2, 0), (2, 1)), ((2, 1), (2, 0)), ((1, 1), (2, 1)), ((2, 1), (1, 1)), ((2, 2), (3, 2)), ((3, 2), (2, 2)), ((2, 2), (2, 3)), ((2, 3), (2, 2)), ((0, 3), (1, 3)), ((1, 3), (0, 3)), ((0, 2), (0, 3)), ((0, 3), (0, 2)), ((2, 3), (3, 3)), ((3, 3), (2, 3)), ((0, 1), (0, 2)), ((0, 2), (0, 1)), ((1, 0), (2, 0)), ((2, 0), (1, 0)), ((2, 0), (3, 0)), ((3, 0), (2, 0)), ((0, 0), (0, 1)), ((0, 1), (0, 0)), ((2, 1), (2, 2)), ((2, 2), (2, 1)), ((1, 3), (2, 3)), ((2, 3), (1, 3)), ((2, 1), (3, 1)), ((3, 1), (2, 1)), ((1, 1), (1, 2)), ((1, 2), (1, 1)), ((3, 1), (3, 2)), ((3, 2), (3, 1))]",5,4,3.3484
995,3,22,"(3, 2)","(0, 1)",17,2,1,"[((0, 2), (0, 3)), ((0, 3), (0, 2)), ((1, 3), (2, 3)), ((2, 3), (1, 3)), ((1, 2), (2, 2)), ((2, 2), (1, 2)), ((2, 3), (3, 3)), ((3, 3), (2, 3)), ((2, 2), (3, 2)), ((3, 2), (2, 2)), ((0, 1), (1, 1)), ((1, 1), (0, 1)), ((0, 0), (1, 0)), ((1, 0), (0, 0)), ((2, 0), (2, 1)), ((2, 1), (2, 0)), ((0, 2), (1, 2)), ((1, 2), (0, 2)), ((2, 2), (2, 3)), ((2, 3), (2, 2)), ((3, 0), (3, 1)), ((3, 1), (3, 0)), ((1, 1), (1, 2)), ((1, 2), (1, 1)), ((2, 1), (3, 1)), ((3, 1), (2, 1)), ((3, 1), (3, 2)), ((3, 2), (3, 1)), ((1, 0), (2, 0)), ((2, 0), (1, 0)), ((0, 3), (1, 3)), ((1, 3), (0, 3)), ((0, 0), (0, 1)), ((0, 1), (0, 0))]",3,3,2.5967
995,3,23,"(0, 1)","(3, 2)",16,1,1,"[((2, 2), (3, 2)), ((3, 2), (2, 2)), ((0, 1), (0, 2)), ((0, 2), (0, 1)), ((3, 2), (3, 3)), ((3, 3), (3, 2)), ((2, 0), (2, 1)), ((2, 1), (2, 0)), ((3, 1), (3, 2)), ((3, 2), (3, 1)), ((2, 0), (3, 0)), ((3, 0), (2, 0)), ((1, 2), (2, 2)), ((2, 2), (1, 2)), ((0, 0), (1, 0)), ((1, 0), (0, 0)), ((1, 0), (1, 1)), ((1, 1), (1, 0)), ((1, 3), (2, 3)), ((2, 3), (1, 3)), ((3, 0), (3, 1)), ((3, 1), (3, 0)), ((2, 1), (2, 2)), ((2, 2), (2, 1)), ((0, 2), (0, 3)), ((0, 3), (0, 2)), ((1, 2), (1, 3)), ((1, 3), (1, 2)), ((0, 2), (1, 2)), ((1, 2), (0, 2)), ((0, 1), (1, 1)), ((1, 1), (0, 1))]",2,2,2.1148
995,3,24,"(2, 3)","(1, 0)",17,2,1,"[((2, 1), (3, 1)), ((3, 1), (2, 1)), ((2, 1), (2, 2)), ((2, 2), (2, 1)), ((0, 2), (1, 2)), ((1, 2), (0, 2)), ((1, 1), (1, 2)), ((1, 2), (1, 1)), ((3, 1), (3, 2)), ((3, 2), (3, 1)), ((1, 2), (1, 3)), ((1, 3), (1, 2)), ((1, 0), (1, 1)), ((1, 1), (1, 0)), ((0, 2), (0, 3)), ((0, 3), (0, 2)), ((2, 3), (3, 3)), ((3, 3), (2, 3)), ((2, 2), (2, 3)), ((2, 3), (2, 2)), ((0, 0), (1, 0)), ((1, 0), (0, 0)), ((3, 0), (3, 1)), ((3, 1), (3, 0)), ((0, 1), (1, 1)), ((1, 1), (0, 1)), ((1, 0), (2, 0)), ((2, 0), (1, 0)), ((1, 3), (2, 3)), ((2, 3), (1, 3)), ((2, 0), (3, 0)), ((3, 0), (2, 0)), ((0, 1), (0, 2)), ((0, 2), (0, 1))]",3,3,1.0293
995,3,25,"(1, 3)","(2, 0)",18,3,1,"[((1, 0), (2, 0)), ((2, 0), (1, 0)), ((3, 2), (3, 3)), ((3, 3), (3, 2)), ((1, 2), (1, 3)), ((1, 3), (1, 2)), ((0, 3), (1, 3)), ((1, 3), (0, 3)), ((2, 1), (3, 1)), ((3, 1), (2, 1)), ((2, 2), (3, 2)), ((3, 2), (2, 2)), ((3, 0), (3, 1)), ((3, 1), (3, 0)), ((1, 2), (2, 2)), ((2, 2), (1, 2)), ((0, 2), (1, 2)), ((1, 2), (0, 2)), ((2, 3), (3, 3)), ((3, 3), (2, 3)), ((0, 0), (0, 1)), ((0, 1), (0, 0)), ((1, 0), (1, 1)), ((1, 1), (1, 0)), ((1, 1), (2, 1)), ((2, 1), (1, 1)), ((2, 0), (2, 1)), ((2, 1), (2, 0)), ((2, 2), (2, 3)), ((2, 3), (2, 2)), ((2, 0), (3, 0)), ((3, 0), (2, 0)), ((1, 1), (1, 2)), ((1, 2), (1, 1)), ((0, 0), (1, 0)), ((1, 0), (0, 0))]",3,3,3.0803
995,3,26,"(3, 2)","(0, 1)",18,3,1,"[((2, 3), (3, 3)), ((3, 3), (2, 3)), ((0, 3), (1, 3)), ((1, 3), (0, 3)), ((0, 1), (0, 2)), ((0, 2), (0, 1)), ((1, 0), (1, 1)), ((1, 1), (1, 0)), ((1, 1), (1, 2)), ((1, 2), (1, 1)), ((2, 1), (3, 1)), ((3, 1), (2, 1)), ((1, 0), (2, 0)), ((2, 0), (1, 0)), ((0, 0), (1, 0)), ((1, 0), (0, 0)), ((3, 0), (3, 1)), ((3, 1), (3, 0)), ((0, 0), (0, 1)), ((0, 1), (0, 0)), ((2, 1), (2, 2)), ((2, 2), (2, 1)), ((1, 2), (1, 3)), ((1, 3), (1, 2)), ((0, 1), (1, 1)), ((1, 1), (0, 1)), ((2, 2), (3, 2)), ((3, 2), (2, 2)), ((0, 2), (0, 3)), ((0, 3), (0, 2)), ((1, 2), (2, 2)), ((2, 2), (1, 2)), ((3, 2), (3, 3)), ((3, 3), (3, 2)), ((1, 1), (2, 1)), ((2, 1), (1, 1))]",6,4,2.7284
995,3,27,"(2, 3)","(1, 0)",16,1,1,"[((1, 3), (2, 3)), ((2, 3), (1, 3)), ((3, 2), (3, 3)), ((3, 3), (3, 2)), ((2, 3), (3, 3)), ((3, 3), (2, 3)), ((2, 2), (2, 3)), ((2, 3), (2, 2)), ((2, 0), (3, 0)), ((3, 0), (2, 0)), ((0, 2), (0, 3)), ((0, 3), (0, 2)), ((1, 2), (2, 2)), ((2, 2), (1, 2)), ((0, 1), (1, 1)), ((1, 1), (0, 1)), ((1, 0), (2, 0)), ((2, 0), (1, 0)), ((2, 1), (2, 2)), ((2, 2), (2, 1)), ((2, 0), (2, 1)), ((2, 1), (2, 0)), ((0, 0), (0, 1)), ((0, 1), (0, 0)), ((0, 1), (0, 2)), ((0, 2), (0, 1)), ((0, 2), (1, 2)), ((1, 2), (0, 2)), ((2, 1), (3, 1)), ((3, 1), (2, 1)), ((1, 1), (1, 2)), ((1, 2), (1, 1))]",1,1,0.8127
995,3,28,"(2, 0)","(1, 3)",16,1,1,"[((2, 0), (3, 0)), ((3, 0), (2, 0)), ((0, 3), (1, 3)), ((1, 3), (0, 3)), ((1, 1), (2, 1)), ((2, 1), (1, 1)), ((3, 2), (3, 3)), ((3, 3), (3, 2)), ((2, 0), (2, 1)), ((2, 1), (2, 0)), ((2, 3), (3, 3)), ((3, 3), (2, 3)), ((1, 2), (2, 2)), ((2, 2), (1, 2)), ((1, 1), (1, 2)), ((1, 2), (1, 1)), ((1, 0), (2, 0)), ((2, 0), (1, 0)), ((0, 2), (0, 3)), ((0, 3), (0, 2)), ((0, 1), (0, 2)), ((0, 2), (0, 1)), ((2, 1), (2, 2)), ((2, 2), (2, 1)), ((0, 0), (0, 1)), ((0, 1), (0, 0)), ((3, 0), (3, 1)), ((3, 1), (3, 0)), ((1, 3), (2, 3)), ((2, 3), (1, 3)), ((0, 2), (1, 2)), ((1, 2), (0, 2))]",2,2,0.6285
995,3,29,"(2, 3)","(1, 0)",18,3,1,"[((1, 0), (2, 0)), ((2, 0), (1, 0)), ((2, 0), (2, 1)), ((2, 1), (2, 0)), ((3, 0), (3, 1)), ((3, 1), (3, 0)), ((1, 1), (1, 2)), ((1, 2), (1, 1)), ((1, 3), (2, 3)), ((2, 3), (1, 3)), ((0, 3), (1, 3)), ((1, 3), (0, 3)), ((0, 0), (0, 1)), ((0, 1), (0, 0)), ((1, 2), (1, 3)), ((1, 3), (1, 2)), ((2, 2), (3, 2)), ((3, 2), (2, 2)), ((0, 1), (0, 2)), ((0, 2), (0, 1)), ((1, 0), (1, 1)), ((1, 1), (1, 0)), ((0, 2), (1, 2)), ((1, 2), (0, 2)), ((0, 0), (1, 0)), ((1, 0), (0, 0)), ((2, 1), (3, 1)), ((3, 1), (2, 1)), ((3, 1), (3, 2)), ((3, 2), (3, 1)), ((2, 2), (2, 3)), ((2, 3), (2, 2)), ((3, 2), (3, 3)), ((3, 3), (3, 2)), ((0, 2), (0, 3)), ((0, 3), (0, 2))]",5,4,4.415
995,3,30,"(3, 2)","(0, 1)",17,2,1,"[((2, 3), (3, 3)), ((3, 3), (2, 3)), ((0, 1), (0, 2)), ((0, 2), (0, 1)), ((1, 1), (2, 1)), ((2, 1), (1, 1)), ((0, 3), (1, 3)), ((1, 3), (0, 3)), ((2, 1), (2, 2)), ((2, 2), (2, 1)), ((1, 0), (1, 1)), ((1, 1), (1, 0)), ((3, 0), (3, 1)), ((3, 1), (3, 0)), ((3, 2), (3, 3)), ((3, 3), (3, 2)), ((0, 2), (0, 3)), ((0, 3), (0, 2)), ((2, 2), (2, 3)), ((2, 3), (2, 2)), ((2, 2), (3, 2)), ((3, 2), (2, 2)), ((1, 0), (2, 0)), ((2, 0), (1, 0)), ((1, 1), (1, 2)), ((1, 2), (1, 1)), ((1, 2), (2, 2)), ((2, 2), (1, 2)), ((2, 1), (3, 1)), ((3, 1), (2, 1)), ((0, 0), (1, 0)), ((1, 0), (0, 0)), ((0, 0), (0, 1)), ((0, 1), (0, 0))]",4,4,3.5798
995,3,31,"(0, 2)","(3, 1)",17,2,1,"[((2, 0), (3, 0)), ((3, 0), (2, 0)), ((0, 1), (1, 1)), ((1, 1), (0, 1)), ((1, 3), (2, 3)), ((2, 3), (1, 3)), ((0, 0), (1, 0)), ((1, 0), (0, 0)), ((0, 0), (0, 1)), ((0, 1), (0, 0)), ((2, 2), (2, 3)), ((2, 3), (2, 2)), ((2, 0), (2, 1)), ((2, 1), (2, 0)), ((2, 1), (3, 1)), ((3, 1), (2, 1)), ((1, 2), (1, 3)), ((1, 3), (1, 2)), ((1, 1), (1, 2)), ((1, 2), (1, 1)), ((0, 3), (1, 3)), ((1, 3), (0, 3)), ((3, 2), (3, 3)), ((3, 3), (3, 2)), ((2, 2), (3, 2)), ((3, 2), (2, 2)), ((2, 1), (2, 2)), ((2, 2), (2, 1)), ((0, 2), (1, 2)), ((1, 2), (0, 2)), ((0, 1), (0, 2)), ((0, 2), (0, 1)), ((3, 0), (3, 1)), ((3, 1), (3, 0))]",4,3,2.8967
995,3,32,"(1, 0)","(2, 3)",17,2,1,"[((2, 1), (3, 1)), ((3, 1), (2, 1)), ((1, 0), (1, 1)), ((1, 1), (1, 0)), ((1, 1), (1, 2)), ((1, 2), (1, 1)), ((2, 0), (3, 0)), ((3, 0), (2, 0)), ((2, 2), (2, 3)), ((2, 3), (2, 2)), ((0, 1), (1, 1)), ((1, 1), (0, 1)), ((3, 2), (3, 3)), ((3, 3), (3, 2)), ((0, 2), (0, 3)), ((0, 3), (0, 2)), ((1, 0), (2, 0)), ((2, 0), (1, 0)), ((1, 3), (2, 3)), ((2, 3), (1, 3)), ((3, 0), (3, 1)), ((3, 1), (3, 0)), ((2, 0), (2, 1)), ((2, 1), (2, 0)), ((3, 1), (3, 2)), ((3, 2), (3, 1)), ((0, 1), (0, 2)), ((0, 2), (0, 1)), ((0, 0), (0, 1)), ((0, 1), (0, 0)), ((2, 3), (3, 3)), ((3, 3), (2, 3)), ((1, 2), (1, 3)), ((1, 3), (1, 2))]",3,3,2.9474
995,3,33,"(1, 3)","(2, 0)",16,1,1,"[((1, 2), (2, 2)), ((2, 2), (1, 2)), ((0, 3), (1, 3)), ((1, 3), (0, 3)), ((2, 2), (2, 3)), ((2, 3), (2, 2)), ((0, 1), (1, 1)), ((1, 1), (0, 1)), ((0, 0), (1, 0)), ((1, 0), (0, 0)), ((1, 1), (1, 2)), ((1, 2), (1, 1)), ((3, 0), (3, 1)), ((3, 1), (3, 0)), ((0, 2), (0, 3)), ((0, 3), (0, 2)), ((2, 2), (3, 2)), ((3, 2), (2, 2)), ((2, 1), (2, 2)), ((2, 2), (2, 1)), ((2, 0), (2, 1)), ((2, 1), (2, 0)), ((1, 0), (1, 1)), ((1, 1), (1, 0)), ((0, 0), (0, 1)), ((0, 1), (0, 0)), ((2, 1), (3, 1)), ((3, 1), (2, 1)), ((0, 1), (0, 2)), ((0, 2), (0, 1)), ((2, 3), (3, 3)), ((3, 3), (2, 3))]",2,2,2.0788
995,3,34,"(0, 1)","(3, 2)",17,2,1,"[((0, 1), (0, 2)), ((0, 2), (0, 1)), ((1, 1), (1, 2)), ((1, 2), (1, 1)), ((0, 0), (1, 0)), ((1, 0), (0, 0)), ((2, 3), (3, 3)), ((3, 3), (2, 3)), ((1, 2), (1, 3)), ((1, 3), (1, 2)), ((1, 0), (1, 1)), ((1, 1), (1, 0)), ((2, 0), (2, 1)), ((2, 1), (2, 0)), ((2, 2), (2, 3)), ((2, 3), (2, 2)), ((0, 2), (1, 2)), ((1, 2), (0, 2)), ((2, 2), (3, 2)), ((3, 2), (2, 2)), ((0, 2), (0, 3)), ((0, 3), (0, 2)), ((1, 2), (2, 2)), ((2, 2), (1, 2)), ((2, 0), (3, 0)), ((3, 0), (2, 0)), ((3, 1), (3, 2)), ((3, 2), (3, 1)), ((0, 0), (0, 1)), ((0, 1), (0, 0)), ((2, 1), (2, 2)), ((2, 2), (2, 1)), ((1, 0), (2, 0)), ((2, 0), (1, 0))]",4,4,3.0779
