pid,block,trial,start,end,edge_count,cyclomatic,stim_time,edges,n_paths,response,rt
MP01,practice,1,"(0, 2)","(3, 1)",16,1,3,"[((1, 1), (2, 1)), ((2, 1), (1, 1)), ((0, 2), (0, 3)), ((0, 3), (0, 2)), ((1, 0), (2, 0)), ((2, 0), (1, 0)), ((3, 2), (3, 3)), ((3, 3), (3, 2)), ((0, 1), (0, 2)), ((0, 2), (0, 1)), ((2, 1), (3, 1)), ((3, 1), (2, 1)), ((2, 0), (2, 1)), ((2, 1), (2, 0)), ((0, 0), (0, 1)), ((0, 1), (0, 0)), ((2, 2), (3, 2)), ((3, 2), (2, 2)), ((0, 3), (1, 3)), ((1, 3), (0, 3)), ((0, 2), (1, 2)), ((1, 2), (0, 2)), ((1, 2), (1, 3)), ((1, 3), (1, 2)), ((3, 0), (3, 1)), ((3, 1), (3, 0)), ((3, 1), (3, 2)), ((3, 2), (3, 1)), ((2, 2), (2, 3)), ((2, 3), (2, 2)), ((1, 3), (2, 3)), ((2, 3), (1, 3))]",2,3,4.3608
MP01,practice,2,"(1, 0)","(2, 3)",15,0,3,"[((2, 1), (3, 1)), ((3, 1), (2, 1)), ((2, 0), (3, 0)), ((3, 0), (2, 0)), ((0, 0), (0, 1)), ((0, 1), (0, 0)), ((0, 2), (1, 2)), ((1, 2), (0, 2)), ((0, 1), (1, 1)), ((1, 1), (0, 1)), ((3, 1), (3, 2)), ((3, 2), (3, 1)), ((2, 3), (3, 3)), ((3, 3), (2, 3)), ((0, 1), (0, 2)), ((0, 2), (0, 1)), ((1, 3), (2, 3)), ((2, 3), (1, 3)), ((2, 2), (2, 3)), ((2, 3), (2, 2)), ((1, 0), (1, 1)), ((1, 1), (1, 0)), ((2, 2), (3, 2)), ((3, 2), (2, 2)), ((1, 0), (2, 0)), ((2, 0), (1, 0)), ((0, 3), (1, 3)), ((1, 3), (0, 3)), ((1, 2), (2, 2)), ((2, 2), (1, 2))]",1,2,1.0529
MP01,practice,3,"(3, 2)","(0, 1)",17,2,3,"[((1, 2), (2, 2)), ((2, 2), (1, 2)), ((2, 0), (2, 1)), ((2, 1), (2, 0)), ((1, 1), (2, 1)), ((2, 1), (1, 1)), ((3, 1), (3, 2)), ((3, 2), (3, 1)), ((1, 2), (1, 3)), ((1, 3), (1, 2)), ((2, 0), (3, 0)), ((3, 0), (2, 0)), ((0, 3), (1, 3)), ((1, 3), (0, 3)), ((0, 0), (0, 1)), ((0, 1), (0, 0)), ((2, 2), (2, 3)), ((2, 3), (2, 2)), ((2, 1), (2, 2)), ((2, 2), (2, 1)), ((1, 0), (1, 1)), ((1, 1), (1, 0)), ((3, 2), (3, 3)), ((3, 3), (3, 2)), ((1, 3), (2, 3)), ((2, 3), (1, 3)), ((0, 1), (0, 2)), ((0, 2), (0, 1)), ((1, 1), (1, 2)), ((1, 2), (1, 1)), ((2, 1), (3, 1)), ((3, 1), (2, 1)), ((0, 1), (1, 1)), ((1, 1), (0, 1))]",3,1,0.7616
MP01,practice,4,"(0, 2)","(3, 1)",18,3,3,"[((0, 1), (0, 2)), ((0, 2), (0, 1)), ((1, 2), (2, 2)), ((2, 2), (1, 2)), ((2, 2), (3, 2)), ((3, 2), (2, 2)), ((3, 0), (3, 1)), ((3, 1), (3, 0)), ((1, 0), (2, 0)), ((2, 0), (1, 0)), ((0, 0), (0, 1)), ((0, 1), (0, 0)), ((2, 2), (2, 3)), ((2, 3), (2, 2)), ((1, 3), (2, 3)), ((2, 3), (1, 3)), ((0, 3), (1, 3)), ((1, 3), (0, 3)), ((2, 3), (3, 3)), ((3, 3), (2, 3)), ((1, 1), (1, 2)), ((1, 2), (1, 1)), ((2, 0), (2, 1)), ((2, 1), (2, 0)), ((1, 2), (1, 3)), ((1, 3), (1, 2)), ((2, 0), (3, 0)), ((3, 0), (2, 0)), ((1, 1), (2, 1)), ((2, 1), (1, 1)), ((0, 2), (0, 3)), ((0, 3), (0, 2)), ((3, 1), (3, 2)), ((3, 2), (3, 1)), ((2, 1), (3, 1)), ((3, 1), (2, 1))]",6,5,1.9062
MP01,practice,5,"(0, 1)","(3, 2)",16,1,3,"[((1, 1), (2, 1)), ((2, 1), (1, 1)), ((1, 0), (1, 1)), ((1, 1), (1, 0)), ((2, 2), (2, 3)), ((2, 3), (2, 2)), ((1, 1), (1, 2)), ((1, 2), (1, 1)), ((0, 3), (1, 3)), ((1, 3), (0, 3)), ((2, 3), (3, 3)), ((3, 3), (2, 3)), ((3, 0), (3, 1)), ((3, 1), (3, 0)), ((1, 2), (1, 3)), ((1, 3), (1, 2)), ((2, 2), (3, 2)), ((3, 2), (2, 2)), ((2, 1), (3, 1)), ((3, 1), (2, 1)), ((2, 1), (2, 2)), ((2, 2), (2, 1)), ((0, 1), (1, 1)), ((1, 1), (0, 1)), ((0, 1), (0, 2)), ((0, 2), (0, 1)), ((3, 1), (3, 2)), ((3, 2), (3, 1)), ((0, 0), (1, 0)), ((1, 0), (0, 0)), ((2, 0), (2, 1)), ((2, 1), (2, 0))]",2,4,0.215
MP01,practice,6,"(1, 0)","(2, 3)",18,3,3,"[((0, 0), (0, 1)), ((0, 1), (0, 0)), ((0, 0), (1, 0)), ((1, 0), (0, 0)), ((0, 2), (0, 3)), ((0, 3), (0, 2)), ((1, 1), (1, 2)), ((1, 2), (1, 1)), ((2, 2), (3, 2)), ((3, 2), (2, 2)), ((1, 0), (1, 1)), ((1, 1), (1, 0)), ((1, 0), (2, 0)), ((2, 0), (1, 0)), ((0, 1), (0, 2)), ((0, 2), (0, 1)), ((1, 3), (2, 3)), ((2, 3), (1, 3)), ((0, 3), (1, 3)), ((1, 3), (0, 3)), ((3, 1), (3, 2)), ((3, 2), (3, 1)), ((2, 3), (3, 3)), ((3, 3), (2, 3)), ((1, 1), (2, 1)), ((2, 1), (1, 1)), ((1, 2), (2, 2)), ((2, 2), (1, 2)), ((3, 0), (3, 1)), ((3, 1), (3, 0)), ((3, 2), (3, 3)), ((3, 3), (3, 2)), ((2, 2), (2, 3)), ((2, 3), (2, 2)), ((2, 0), (3, 0)), ((3, 0), (2, 0))]",7,3,0.7364
MP01,practice,7,"(0, 2)","(3, 1)",17,2,3,"[((2, 3), (3, 3)), ((3, 3), (2, 3)), ((2, 0), (3, 0)), ((3, 0), (2, 0)), ((1, 0), (2, 0)), ((2, 0), (1, 0)), ((0, 2), (0, 3)), ((0, 3), (0, 2)), ((0, 0), (1, 0)), ((1, 0), (0, 0)), ((1, 3), (2, 3)), ((2, 3), (1, 3)), ((2, 2), (2, 3)), ((2, 3), (2, 2)), ((1, 2), (1, 3)), ((1, 3), (1, 2)), ((3, 2), (3, 3)), ((3, 3), (3, 2)), ((2, 2), (3, 2)), ((3, 2), (2, 2)), ((1, 0), (1, 1)), ((1, 1), (1, 0)), ((2, 1), (3, 1)), ((3, 1), (2, 1)), ((0, 2), (1, 2)), ((1, 2), (0, 2)), ((3, 1), (3, 2)), ((3, 2), (3, 1)), ((0, 1), (0, 2)), ((0, 2), (0, 1)), ((1, 1), (1, 2)), ((1, 2), (1, 1)), ((2, 0), (2, 1)), ((2, 1), (2, 0))]",3,2,0.82
MP01,practice,8,"(3, 2)","(0, 1)",18,3,3,"[((2, 2), (2, 3)), ((2, 3), (2, 2)), ((0, 2), (1, 2)), ((1, 2), (0, 2)), ((1, 2), (1, 3)), ((1, 3), (1, 2)), ((3, 1), (3, 2)), ((3, 2), (3, 1)), ((0, 2), (0, 3)), ((0, 3), (0, 2)), ((1, 0), (1, 1)), ((1, 1), (1, 0)), ((1, 2), (2, 2)), ((2, 2), (1, 2)), ((0, 0), (1, 0)), ((1, 0), (0, 0)), ((2, 0), (2, 1)), ((2, 1), (2, 0)), ((1, 3), (2, 3)), ((2, 3), (1, 3)), ((2, 0), (3, 0)), ((3, 0), (2, 0)), ((1, 1), (2, 1)), ((2, 1), (1, 1)), ((0, 1), (0, 2)), ((0, 2), (0, 1)), ((2, 3), (3, 3)), ((3, 3), (2, 3)), ((2, 2), (3, 2)), ((3, 2), (2, 2)), ((2, 1), (3, 1)), ((3, 1), (2, 1)), ((0, 0), (0, 1)), ((0, 1), (0, 0)), ((0, 1), (1, 1)), ((1, 1), (0, 1))]",4,3,0.9828
MP01,practice,9,"(2, 3)","(1, 0)",18,3,3,"[((3, 2), (3, 3)), ((3, 3), (3, 2)), ((1, 3), (2, 3)), ((2, 3), (1, 3)), ((0, 1), (1, 1)), ((1, 1), (0, 1)), ((3, 1), (3, 2)), ((3, 2), (3, 1)), ((0, 0), (1, 0)), ((1, 0), (0, 0)), ((2, 0), (3, 0)), ((3, 0), (2, 0)), ((1, 2), (2, 2)), ((2, 2), (1, 2)), ((1, 0), (2, 0)), ((2, 0), (1, 0)), ((0, 1), (0, 2)), ((0, 2), (0, 1)), ((2, 2), (3, 2)), ((3, 2), (2, 2)), ((0, 0), (0, 1)), ((0, 1), (0, 0)), ((1, 0), (1, 1)), ((1, 1), (1, 0)), ((3, 0), (3, 1)), ((3, 1), (3, 0)), ((0, 2), (0, 3)), ((0, 3), (0, 2)), ((0, 2), (1, 2)), ((1, 2), (0, 2)), ((1, 1), (1, 2)), ((1, 2), (1, 1)), ((0, 3), (1, 3)), ((1, 3), (0, 3)), ((1, 1), (2, 1)), ((2, 1), (1, 1))]",6,2,0.9467
MP01,practice,10,"(0, 1)","(3, 2)",17,2,3,"[((2, 2), (3, 2)), ((3, 2), (2, 2)), ((1, 3), (2, 3)), ((2, 3), (1, 3)), ((1, 0), (2, 0)), ((2, 0), (1, 0)), ((2, 3), (3, 3)), ((3, 3), (2, 3)), ((0, 1), (0, 2)), ((0, 2), (0, 1)), ((0, 2), (1, 2)), ((1, 2), (0, 2)), ((1, 0), (1, 1)), ((1, 1), (1, 0)), ((1, 1), (1, 2)), ((1, 2), (1, 1)), ((0, 0), (0, 1)), ((0, 1), (0, 0)), ((3, 0), (3, 1)), ((3, 1), (3, 0)), ((3, 2), (3, 3)), ((3, 3), (3, 2)), ((3, 1), (3, 2)), ((3, 2), (3, 1)), ((1, 1), (2, 1)), ((2, 1), (1, 1)), ((0, 1), (1, 1)), ((1, 1), (0, 1)), ((0, 0), (1, 0)), ((1, 0), (0, 0)), ((0, 3), (1, 3)), ((1, 3), (0, 3)), ((1, 2), (1, 3)), ((1, 3), (1, 2))]",5,2,3.5456
MP01,1,1,"(0, 2)","(3, 1)",18,3,3,"[((2, 2), (2, 3)), ((2, 3), (2, 2)), ((1, 0), (1, 1)), ((1, 1), (1, 0)), ((1, 1), (1, 2)), ((1, 2), (1, 1)), ((0, 1), (1, 1)), ((1, 1), (0, 1)), ((2, 0), (3, 0)), ((3, 0), (2, 0)), ((0, 2), (0, 3)), ((0, 3), (0, 2)), ((2, 1), (2, 2)), ((2, 2), (2, 1)), ((2, 1), (3, 1)), ((3, 1), (2, 1)), ((1, 2), (2, 2)), ((2, 2), (1, 2)), ((3, 1), (3, 2)), ((3, 2), (3, 1)), ((1, 3), (2, 3)), ((2, 3), (1, 3)), ((1, 0), (2, 0)), ((2, 0), (1, 0)), ((2, 2), (3, 2)), ((3, 2), (2, 2)), ((2, 0), (2, 1)), ((2, 1), (2, 0)), ((3, 2), (3, 3)), ((3, 3), (3, 2)), ((0, 3), (1, 3)), ((1, 3), (0, 3)), ((0, 0), (1, 0)), ((1, 0), (0, 0)), ((3, 0), (3, 1)), ((3, 1), (3, 0))]",7,3,1.2719
MP01,1,2,"(1, 0)","(2, 3)",17,2,3,"[((2, 2), (2, 3)), ((2, 3), (2, 2)), ((1, 1), (2, 1)), ((2, 1), (1, 1)), ((2, 3), (3, 3)), ((3, 3), (2, 3)), ((0, 2), (1, 2)), ((1, 2), (0, 2)), ((1, 0), (1, 1)), ((1, 1), (1, 0)), ((0, 1), (0, 2)), ((0, 2), (0, 1)), ((0, 2), (0, 3)), ((0, 3), (0, 2)), ((2, 1), (2, 2)), ((2, 2), (2, 1)), ((1, 2), (1, 3)), ((1, 3), (1, 2)), ((2, 0), (3, 0)), ((3, 0), (2, 0)), ((1, 2), (2, 2)), ((2, 2), (1, 2)), ((0, 1), (1, 1)), ((1, 1), (0, 1)), ((2, 1), (3, 1)), ((3, 1), (2, 1)), ((2, 0), (2, 1)), ((2, 1), (2, 0)), ((0, 0), (1, 0)), ((1, 0), (0, 0)), ((3, 2), (3, 3)), ((3, 3), (3, 2)), ((0, 3), (1, 3)), ((1, 3), (0, 3))]",3,3,2.2976
MP01,1,3,"(2, 0)","(1, 3)",18,3,3,"[((1, 2), (2, 2)), ((2, 2), (1, 2)), ((2, 2), (2, 3)), ((2, 3), (2, 2)), ((2, 0), (2, 1)), ((2, 1), (2, 0)), ((2, 1), (2, 2)), ((2, 2), (2, 1)), ((0, 3), (1, 3)), ((1, 3), (0, 3)), ((0, 2), (0, 3)), ((0, 3), (0, 2)), ((0, 1), (1, 1)), ((1, 1), (0, 1)), ((3, 2), (3, 3)), ((3, 3), (3, 2)), ((1, 1), (2, 1)), ((2, 1), (1, 1)), ((1, 2), (1, 3)), ((1, 3), (1, 2)), ((0, 1), (0, 2)), ((0, 2), (0, 1)), ((1, 1), (1, 2)), ((1, 2), (1, 1)), ((3, 0), (3, 1)), ((3, 1), (3, 0)), ((2, 0), (3, 0)), ((3, 0), (2, 0)), ((1, 0), (2, 0)), ((2, 0), (1, 0)), ((1, 3), (2, 3)), ((2, 3), (1, 3)), ((3, 1), (3, 2)), ((3, 2), (3, 1)), ((0, 0), (0, 1)), ((0, 1), (0, 0))]",6,4,1.2128
MP01,1,4,"(3, 2)","(0, 1)",17,2,3,"[((2, 0), (3, 0)), ((3, 0), (2, 0)), ((0, 0), (1, 0)), ((1, 0), (0, 0)), ((3, 0), (3, 1)), ((3, 1), (3, 0)), ((0, 2), (1, 2)), ((1, 2), (0, 2)), ((1, 1), (2, 1)), ((2, 1), (1, 1)), ((3, 2), (3, 3)), ((3, 3), (3, 2)), ((0, 0), (0, 1)), ((0, 1), (0, 0)), ((2, 2), (2, 3)), ((2, 3), (2, 2)), ((2, 3), (3, 3)), ((3, 3), (2, 3)), ((3, 1), (3, 2)), ((3, 2), (3, 1)), ((2, 1), (3, 1)), ((3, 1), (2, 1)), ((1, 2), (2, 2)), ((2, 2), (1, 2)), ((0, 2), (0, 3)), ((0, 3), (0, 2)), ((0, 3), (1, 3)), ((1, 3), (0, 3)), ((1, 3), (2, 3)), ((2, 3), (1, 3)), ((2, 2), (3, 2)), ((3, 2), (2, 2)), ((0, 1), (1, 1)), ((1, 1), (0, 1))]",5,1,0.7856
MP01,1,5,"(2, 0)","(1, 3)",17,2,3,"[((1, 1), (1, 2)), ((1, 2), (1, 1)), ((3, 0), (3, 1)), ((3, 1), (3, 0)), ((2, 0), (2, 1)), ((2, 1), (2, 0)), ((2, 2), (3, 2)), ((3, 2), (2, 2)), ((1, 0), (1, 1)), ((1, 1), (1, 0)), ((0, 0), (1, 0)), ((1, 0), (0, 0)), ((2, 2), (2, 3)), ((2, 3), (2, 2)), ((2, 1), (3, 1)), ((3, 1), (2, 1)), ((1, 2), (2, 2)), ((2, 2), (1, 2)), ((1, 0), (2, 0)), ((2, 0), (1, 0)), ((0, 3), (1, 3)), ((1, 3), (0, 3)), ((1, 3), (2, 3)), ((2, 3), (1, 3)), ((0, 1), (0, 2)), ((0, 2), (0, 1)), ((2, 3), (3, 3)), ((3, 3), (2, 3)), ((2, 0), (3, 0)), ((3, 0), (2, 0)), ((0, 2), (0, 3)), ((0, 3), (0, 2)), ((1, 1), (2, 1)), ((2, 1), (1, 1))]",5,3,0.8393
MP01,1,6,"(3, 1)","(0, 2)",16,1,3,"[((3, 1), (3, 2)), ((3, 2), (3, 1)), ((2, 3), (3, 3)), ((3, 3), (2, 3)), ((1, 0), (2, 0)), ((2, 0), (1, 0)), ((2, 0), (2, 1)), ((2, 1), (2, 0)), ((2, 0), (3, 0)), ((3, 0), (2, 0)), ((0, 2), (0, 3)), ((0, 3), (0, 2)), ((0, 3), (1, 3)), ((1, 3), (0, 3)), ((0, 0), (0, 1)), ((0, 1), (0, 0)), ((0, 1), (1, 1)), ((1, 1), (0, 1)), ((3, 0), (3, 1)), ((3, 1), (3, 0)), ((2, 2), (2, 3)), ((2, 3), (2, 2)), ((2, 1), (2, 2)), ((2, 2), (2, 1)), ((1, 2), (1, 3)), ((1, 3), (1, 2)), ((0, 0), (1, 0)), ((1, 0), (0, 0)), ((1, 2), (2, 2)), ((2, 2), (1, 2)), ((1, 0), (1, 1)), ((1, 1), (1, 0))]",1,1,0.655
MP01,1,7,"(0, 1)","(3, 2)",16,1,3,"[((0, 0), (0, 1)), ((0, 1), (0, 0)), ((2, 2), (2, 3)), ((2, 3), (2, 2)), ((0, 3), (1, 3)), ((1, 3), (0, 3)), ((2, 0), (3, 0)), ((3, 0), (2, 0)), ((1, 0), (2, 0)), ((2, 0), (1, 0)), ((1, 0), (1, 1)), ((1, 1), (1, 0)), ((2, 1), (3, 1)), ((3, 1), (2, 1)), ((2, 0), (2, 1)), ((2, 1), (2, 0)), ((0, 2), (0, 3)), ((0, 3), (0, 2)), ((1, 2), (1, 3)), ((1, 3), (1, 2)), ((1, 1), (1, 2)), ((1, 2), (1, 1)), ((2, 2), (3, 2)), ((3, 2), (2, 2)), ((2, 3), (3, 3)), ((3, 3), (2, 3)), ((1, 2), (2, 2)), ((2, 2), (1, 2)), ((0, 0), (1, 0)), ((1, 0), (0, 0)), ((3, 0), (3, 1)), ((3, 1), (3, 0))]",1,1,1.6064
MP01,1,8,"(0, 1)","(3, 2)",17,2,3,"[((3, 2), (3, 3)), ((3, 3), (3, 2)), ((3, 0), (3, 1)), ((3, 1), (3, 0)), ((2, 2), (2, 3)), ((2, 3), (2, 2)), ((0, 0), (1, 0)), ((1, 0), (0, 0)), ((0, 0), (0, 1)), ((0, 1), (0, 0)), ((2, 1), (3, 1)), ((3, 1), (2, 1)), ((2, 2), (3, 2)), ((3, 2), (2, 2)), ((0, 1), (1, 1)), ((1, 1), (0, 1)), ((0, 2), (1, 2)), ((1, 2), (0, 2)), ((1, 1), (2, 1)), ((2, 1), (1, 1)), ((1, 1), (1, 2)), ((1, 2), (1, 1)), ((1, 0), (2, 0)), ((2, 0), (1, 0)), ((1, 2), (1, 3)), ((1, 3), (1, 2)), ((0, 3), (1, 3)), ((1, 3), (0, 3)), ((0, 1), (0, 2)), ((0, 2), (0, 1)), ((1, 0), (1, 1)), ((1, 1), (1, 0)), ((1, 2), (2, 2)), ((2, 2), (1, 2))]",5,2,0.5868
MP01,1,9,"(2, 3)","(1, 0)",18,3,3,"[((0, 2), (1, 2)), ((1, 2), (0, 2)), ((0, 3), (1, 3)), ((1, 3), (0, 3)), ((1, 2), (1, 3)), ((1, 3), (1, 2)), ((0, 0), (1, 0)), ((1, 0), (0, 0)), ((1, 0), (2, 0)), ((2, 0), (1, 0)), ((2, 0), (3, 0)), ((3, 0), (2, 0)), ((2, 0), (2, 1)), ((2, 1), (2, 0)), ((3, 0), (3, 1)), ((3, 1), (3, 0)), ((1, 2), (2, 2)), ((2, 2), (1, 2)), ((0, 1), (1, 1)), ((1, 1), (0, 1)), ((1, 3), (2, 3)), ((2, 3), (1, 3)), ((2, 1), (2, 2)), ((2, 2), (2, 1)), ((3, 1), (3, 2)), ((3, 2), (3, 1)), ((0, 0), (0, 1)), ((0, 1), (0, 0)), ((1, 0), (1, 1)), ((1, 1), (1, 0)), ((1, 1), (1, 2)), ((1, 2), (1, 1)), ((2, 3), (3, 3)), ((3, 3), (2, 3)), ((3, 2), (3, 3)), ((3, 3), (3, 2))]",6,3,2.6513
MP01,1,10,"(0, 2)","(3, 1)",16,1,3,"[((3, 2), (3, 3)), ((3, 3), (3, 2)), ((2, 2), (2, 3)), ((2, 3), (2, 2)), ((2, 0), (2, 1)), ((2, 1), (2, 0)), ((1, 0), (2, 0)), ((2, 0), (1, 0)), ((2, 2), (3, 2)), ((3, 2), (2, 2)), ((3, 0), (3, 1)), ((3, 1), (3, 0)), ((2, 1), (3, 1)), ((3, 1), (2, 1)), ((1, 2), (1, 3)), ((1, 3), (1, 2)), ((0, 0), (0, 1)), ((0, 1), (0, 0)), ((0, 1), (1, 1)), ((1, 1), (0, 1)), ((0, 3), (1, 3)), ((1, 3), (0, 3)), ((2, 3), (3, 3)), ((3, 3), (2, 3)), ((2, 1), (2, 2)), ((2, 2), (2, 1)), ((1, 3), (2, 3)), ((2, 3), (1, 3)), ((1, 1), (1, 2)), ((1, 2), (1, 1)), ((0, 2), (1, 2)), ((1, 2), (0, 2))]",2,1,1.0061
MP01,1,11,"(2, 3)","(1, 0)",17,2,3,"[((3, 0), (3, 1)), ((3, 1), (3, 0)), ((1, 0), (1, 1)), ((1, 1), (1, 0)), ((0, 2), (1, 2)), ((1, 2), (0, 2)), ((1, 2), (1, 3)), ((1, 3), (1, 2)), ((0, 0), (1, 0)), ((1, 0), (0, 0)), ((0, 1), (1, 1)), ((1, 1), (0, 1)), ((3, 2), (3, 3)), ((3, 3), (3, 2)), ((1, 1), (1, 2)), ((1, 2), (1, 1)), ((2, 3), (3, 3)), ((3, 3), (2, 3)), ((0, 3), (1, 3)), ((1, 3), (0, 3)), ((2, 0), (2, 1)), ((2, 1), (2, 0)), ((0, 0), (0, 1)), ((0, 1), (0, 0)), ((1, 1), (2, 1)), ((2, 1), (1, 1)), ((1, 0), (2, 0)), ((2, 0), (1, 0)), ((3, 1), (3, 2)), ((3, 2), (3, 1)), ((2, 1), (3, 1)), ((3, 1), (2, 1)), ((2, 1), (2, 2)), ((2, 2), (2, 1))]",3,3,0.6183
MP01,1,12,"(0, 2)","(3, 1)",17,2,3,"[((2, 0), (3, 0)), ((3, 0), (2, 0)), ((0, 2), (1, 2)), ((1, 2), (0, 2)), ((1, 0), (1, 1)), ((1, 1), (1, 0)), ((0, 2), (0, 3)), ((0, 3), (0, 2)), ((0, 1), (0, 2)), ((0, 2), (0, 1)), ((3, 2), (3, 3)), ((3, 3), (3, 2)), ((1, 1), (2, 1)), ((2, 1), (1, 1)), ((0, 1), (1, 1)), ((1, 1), (0, 1)), ((1, 2), (1, 3)), ((1, 3), (1, 2)), ((2, 1), (2, 2)), ((2, 2), (2, 1)), ((0, 0), (1, 0)), ((1, 0), (0, 0)), ((2, 3), (3, 3)), ((3, 3), (2, 3)), ((2, 1), (3, 1)), ((3, 1), (2, 1)), ((1, 0), (2, 0)), ((2, 0), (1, 0)), ((2, 2), (2, 3)), ((2, 3), (2, 2)), ((1, 1), (1, 2)), ((1, 2), (1, 1)), ((0, 0), (0, 1)), ((0, 1), (0, 0))]",5,1,1.5022
MP01,1,13,"(3, 2)","(0, 1)",17,2,3,"[((2, 2), (3, 2)), ((3, 2), (2, 2)), ((3, 0), (3, 1)), ((3, 1), (3, 0)), ((1, 0), (2, 0)), ((2, 0), (1, 0)), ((2, 1), (2, 2)), ((2, 2), (2, 1)), ((2, 2), (2, 3)), ((2, 3), (2, 2)), ((1, 1), (2, 1)), ((2, 1), (1, 1)), ((0, 0), (0, 1)), ((0, 1), (0, 0)), ((0, 0), (1, 0)), ((1, 0), (0, 0)), ((1, 3), (2, 3)), ((2, 3), (1, 3)), ((0, 2), (1, 2)), ((1, 2), (0, 2)), ((1, 0), (1, 1)), ((1, 1), (1, 0)), ((0, 1), (1, 1)), ((1, 1), (0, 1)), ((2, 3), (3, 3)), ((3, 3), (2, 3)), ((2, 0), (3, 0)), ((3, 0), (2, 0)), ((0, 3), (1, 3)), ((1, 3), (0, 3)), ((1, 1), (1, 2)), ((1, 2), (1, 1)), ((0, 1), (0, 2)), ((0, 2), (0, 1))]",3,3,1.1073
MP01,1,14,"(1, 0)","(2, 3)",17,2,3,"[((0, 1), (0, 2)), ((0, 2), (0, 1)), ((2, 1), (3, 1)), ((3, 1), (2, 1)), ((0, 0), (1, 0)), ((1, 0), (0, 0)), ((1, 1), (1, 2)), ((1, 2), (1, 1)), ((0, 2), (1, 2)), ((1, 2), (0, 2)), ((0, 0), (0, 1)), ((0, 1), (0, 0)), ((2, 1), (2, 2)), ((2, 2), (2, 1)), ((1, 2), (2, 2)), ((2, 2), (1, 2)), ((2, 0), (2, 1)), ((2, 1), (2, 0)), ((1, 1), (2, 1)), ((2, 1), (1, 1)), ((3, 0), (3, 1)), ((3, 1), (3, 0)), ((0, 2), (0, 3)), ((0, 3), (0, 2)), ((2, 2), (3, 2)), ((3, 2), (2, 2)), ((3, 2), (3, 3)), ((3, 3), (3, 2)), ((1, 0), (2, 0)), ((2, 0), (1, 0)), ((1, 3), (2, 3)), ((2, 3), (1, 3)), ((2, 2), (2, 3)), ((2, 3), (2, 2))]",4,2,1.3849
MP01,1,15,"(1, 3)","(2, 0)",18,3,3,"[((1, 0), (2, 0)), ((2, 0), (1, 0)), ((1, 3), (2, 3)), ((2, 3), (1, 3)), ((0, 0), (1, 0)), ((1, 0), (0, 0)), ((2, 2), (2, 3)), ((2, 3), (2, 2)), ((0, 1), (0, 2)), ((0, 2), (0, 1)), ((1, 1), (2, 1)), ((2, 1), (1, 1)), ((2, 0), (3, 0)), ((3, 0), (2, 0)), ((0, 2), (1, 2)), ((1, 2), (0, 2)), ((1, 1), (1, 2)), ((1, 2), (1, 1)), ((3, 2), (3, 3)), ((3, 3), (3, 2)), ((3, 0), (3, 1)), ((3, 1), (3, 0)), ((2, 0), (2, 1)), ((2, 1), (2, 0)), ((2, 1), (2, 2)), ((2, 2), (2, 1)), ((1, 2), (1, 3)), ((1, 3), (1, 2)), ((2, 3), (3, 3)), ((3, 3), (2, 3)), ((3, 1), (3, 2)), ((3, 2), (3, 1)), ((2, 2), (3, 2)), ((3, 2), (2, 2)), ((0, 3), (1, 3)), ((1, 3), (0, 3))]",7,2,2.3549
MP01,1,16,"(2, 0)","(1, 3)",18,3,3,"[((1, 2), (2, 2)), ((2, 2), (1, 2)), ((3, 0), (3, 1)), ((3, 1), (3, 0)), ((0, 2), (1, 2)), ((1, 2), (0, 2)), ((2, 1), (2, 2)), ((2, 2), (2, 1)), ((0, 2), (0, 3)), ((0, 3), (0, 2)), ((1, 3), (2, 3)), ((2, 3), (1, 3)), ((0, 0), (0, 1)), ((0, 1), (0, 0)), ((2, 2), (3, 2)), ((3, 2), (2, 2)), ((3, 1), (3, 2)), ((3, 2), (3, 1)), ((1, 1), (1, 2)), ((1, 2), (1, 1)), ((2, 0), (3, 0)), ((3, 0), (2, 0)), ((0, 3), (1, 3)), ((1, 3), (0, 3)), ((1, 0), (2, 0)), ((2, 0), (1, 0)), ((2, 3), (3, 3)), ((3, 3), (2, 3)), ((0, 1), (1, 1)), ((1, 1), (0, 1)), ((1, 1), (2, 1)), ((2, 1), (1, 1)), ((2, 1), (3, 1)), ((3, 1), (2, 1)), ((1, 0), (1, 1)), ((1, 1), (1, 0))]",7,3,1.95
MP01,1,17,"(3, 2)","(0, 1)",18,3,3,"[((0, 2), (0, 3)), ((0, 3), (0, 2)), ((3, 0), (3, 1)), ((3, 1), (3, 0)), ((2, 0), (2, 1)), ((2, 1), (2, 0)), ((0, 0), (0, 1)), ((0, 1), (0, 0)), ((2, 0), (3, 0)), ((3, 0), (2, 0)), ((3, 2), (3, 3)), ((3, 3), (3, 2)), ((1, 1), (2, 1)), ((2, 1), (1, 1)), ((1, 1), (1, 2)), ((1, 2), (1, 1)), ((2, 1), (2, 2)), ((2, 2), (2, 1)), ((1, 2), (1, 3)), ((1, 3), (1, 2)), ((1, 2), (2, 2)), ((2, 2), (1, 2)), ((0, 0), (1, 0)), ((1, 0), (0, 0)), ((0, 1), (0, 2)), ((0, 2), (0, 1)), ((2, 2), (3, 2)), ((3, 2), (2, 2)), ((3, 1), (3, 2)), ((3, 2), (3, 1)), ((1, 0), (2, 0)), ((2, 0), (1, 0)), ((1, 0), (1, 1)), ((1, 1), (1, 0)), ((2, 2), (2, 3)), ((2, 3), (2, 2))]",7,3,1.7639
MP01,1,18,"(3, 2)","(0, 1)",16,1,3,"[((2, 0), (2, 1)), ((2, 1), (2, 0)), ((1, 2), (1, 3)), ((1, 3), (1, 2)), ((0, 1), (0, 2)), ((0, 2), (0, 1)), ((2, 2), (3, 2)), ((3, 2), (2, 2)), ((2, 3), (3, 3)), ((3, 3), (2, 3)), ((2, 2), (2, 3)), ((2, 3), (2, 2)), ((1, 1), (2, 1)), ((2, 1), (1, 1)), ((0, 2), (0, 3)), ((0, 3), (0, 2)), ((2, 0), (3, 0)), ((3, 0), (2, 0)), ((0, 0), (1, 0)), ((1, 0), (0, 0)), ((1, 1), (1, 2)), ((1, 2), (1, 1)), ((1, 2), (2, 2)), ((2, 2), (1, 2)), ((0, 0), (0, 1)), ((0, 1), (0, 0)), ((3, 0), (3, 1)), ((3, 1), (3, 0)), ((1, 0), (1, 1)), ((1, 1), (1, 0)), ((2, 1), (2, 2)), ((2, 2), (2, 1))]",2,1,2.3512
MP01,1,19,"(1, 3)","(2, 0)",18,3,3,"[((3, 1), (3, 2)), ((3, 2), (3, 1)), ((2, 2), (2, 3)), ((2, 3), (2, 2)), ((2, 1), (3, 1)), ((3, 1), (2, 1)), ((1, 1), (2, 1)), ((2, 1), (1, 1)), ((1, 2), (2, 2)), ((2, 2), (1, 2)), ((3, 2), (3, 3)), ((3, 3), (3, 2)), ((1, 0), (2, 0)), ((2, 0), (1, 0)), ((0, 1), (1, 1)), ((1, 1), (0, 1)), ((0, 1), (0, 2)), ((0, 2), (0, 1)), ((2, 2), (3, 2)), ((3, 2), (2, 2)), ((2, 0), (3, 0)), ((3, 0), (2, 0)), ((2, 0), (2, 1)), ((2, 1), (2, 0)), ((2, 3), (3, 3)), ((3, 3), (2, 3)), ((1, 3), (2, 3)), ((2, 3), (1, 3)), ((0, 3), (1, 3)), ((1, 3), (0, 3)), ((1, 1), (1, 2)), ((1, 2), (1, 1)), ((1, 2), (1, 3)), ((1, 3), (1, 2)), ((0, 0), (0, 1)), ((0, 1), (0, 0))]",7,1,4.6683
MP01,1,20,"(3, 2)","(0, 1)",18,3,3,"[((0, 1), (0, 2)), ((0, 2), (0, 1)), ((2, 0), (2, 1)), ((2, 1), (2, 0)), ((0, 0), (1, 0)), ((1, 0), (0, 0)), ((0, 1), (1, 1)), ((1, 1), (0, 1)), ((1, 0), (2, 0)), ((2, 0), (1, 0)), ((1, 2), (2, 2)), ((2, 2), (1, 2)), ((2, 3), (3, 3)), ((3, 3), (2, 3)), ((1, 0), (1, 1)), ((1, 1), (1, 0)), ((2, 1), (2, 2)), ((2, 2), (2, 1)), ((0, 0), (0, 1)), ((0, 1), (0, 0)), ((0, 2), (0, 3)), ((0, 3), (0, 2)), ((2, 0), (3, 0)), ((3, 0), (2, 0)), ((2, 2), (2, 3)), ((2, 3), (2, 2)), ((3, 2), (3, 3)), ((3, 3), (3, 2)), ((3, 1), (3, 2)), ((3, 2), (3, 1)), ((1, 2), (1, 3)), ((1, 3), (1, 2)), ((0, 3), (1, 3)), ((1, 3), (0, 3)), ((3, 0), (3, 1)), ((3, 1), (3, 0))]",6,3,2.0403
MP01,1,21,"(0, 1)","(3, 2)",17,2,3,"[((1, 0), (1, 1)), ((1, 1), (1, 0)), ((1, 3), (2, 3)), ((2, 3), (1, 3)), ((3, 1), (3, 2)), ((3, 2), (3, 1)), ((0, 2), (0, 3)), ((0, 3), (0, 2)), ((2, 3), (3, 3)), ((3, 3), (2, 3)), ((2, 2), (3, 2)), ((3, 2), (2, 2)), ((2, 0), (2, 1)), ((2, 1), (2, 0)), ((1, 2), (2, 2)), ((2, 2), (1, 2)), ((1, 1), (2, 1)), ((2, 1), (1, 1)), ((2, 1), (2, 2)), ((2, 2), (2, 1)), ((1, 1), (1, 2)), ((1, 2), (1, 1)), ((0, 2), (1, 2)), ((1, 2), (0, 2)), ((0, 3), (1, 3)), ((1, 3), (0, 3)), ((0, 0), (1, 0)), ((1, 0), (0, 0)), ((0, 0), (0, 1)), ((0, 1), (0, 0)), ((2, 0), (3, 0)), ((3, 0), (2, 0)), ((0, 1), (1, 1)), ((1, 1), (0, 1))]",4,3,4.7969
MP01,1,22,"(3, 2)","(0, 1)",17,2,3,"[((0, 0), (0, 1)), ((0, 1), (0, 0)), ((2, 1), (3, 1)), ((3, 1), (2, 1)), ((0, 3), (1, 3)), ((1, 3), (0, 3)), ((1, 2), (2, 2)), ((2, 2), (1, 2)), ((2, 3), (3, 3)), ((3, 3), (2, 3)), ((3, 0), (3, 1)), ((3, 1), (3, 0)), ((2, 0), (2, 1)), ((2, 1), (2, 0)), ((0, 0), (1, 0)), ((1, 0), (0, 0)), ((0, 2), (0, 3)), ((0, 3), (0, 2)), ((1, 3), (2, 3)), ((2, 3), (1, 3)), ((1, 0), (1, 1)), ((1, 1), (1, 0)), ((0, 1), (0, 2)), ((0, 2), (0, 1)), ((0, 2), (1, 2)), ((1, 2), (0, 2)), ((2, 1), (2, 2)), ((2, 2), (2, 1)), ((1, 1), (2, 1)), ((2, 1), (1, 1)), ((1, 1), (1, 2)), ((1, 2), (1, 1)), ((3, 2), (3, 3)), ((3, 3), (3, 2))]",3,4,2.6613
MP01,1,23,"(0, 1)","(3, 2)",17,2,3,"[((2, 0), (2, 1)), ((2, 1), (2, 0)), ((0, 3), (1, 3)), ((1, 3), (0, 3)), ((0, 0), (0, 1)), ((0, 1), (0, 0)), ((2, 1), (3, 1)), ((3, 1), (2, 1)), ((1, 0), (2, 0)), ((2, 0), (1, 0)), ((2, 2), (2, 3)), ((2, 3), (2, 2)), ((1, 3), (2, 3)), ((2, 3), (1, 3)), ((0, 2), (1, 2)), ((1, 2), (0, 2)), ((0, 1), (0, 2)), ((0, 2), (0, 1)), ((1, 0), (1, 1)), ((1, 1), (1, 0)), ((3, 2), (3, 3)), ((3, 3), (3, 2)), ((2, 3), (3, 3)), ((3, 3), (2, 3)), ((3, 0), (3, 1)), ((3, 1), (3, 0)), ((2, 1), (2, 2)), ((2, 2), (2, 1)), ((1, 2), (1, 3)), ((1, 3), (1, 2)), ((3, 1), (3, 2)), ((3, 2), (3, 1)), ((1, 2), (2, 2)), ((2, 2), (1, 2))]",4,3,1.3059
MP01,1,24,"(2, 0)","(1, 3)",15,0,3,"[((0, 1), (1, 1)), ((1, 1), (0, 1)), ((0, 0), (0, 1)), ((0, 1), (0, 0)), ((1, 1), (2, 1)), ((2, 1), (1, 1)), ((1, 1), (1, 2)), ((1, 2), (1, 1)), ((2, 0), (2, 1)), ((2, 1), (2, 0)), ((2, 1), (2, 2)), ((2, 2), (2, 1)), ((1, 3), (2, 3)), ((2, 3), (1, 3)), ((2, 3), (3, 3)), ((3, 3), (2, 3)), ((0, 2), (0, 3)), ((0, 3), (0, 2)), ((0, 2), (1, 2)), ((1, 2), (0, 2)), ((1, 0), (1, 1)), ((1, 1), (1, 0)), ((3, 2), (3, 3)), ((3, 3), (3, 2)), ((2, 0), (3, 0)), ((3, 0), (2, 0)), ((2, 2), (2, 3)), ((2, 3), (2, 2)), ((3, 0), (3, 1)), ((3, 1), (3, 0))]",1,2,1.4663
MP01,1,25,"(3, 1)","(0, 2)",17,2,3,"[((1, 1), (1, 2)), ((1, 2), (1, 1)), ((2, 2), (2, 3)), ((2, 3), (2, 2)), ((2, 2), (3, 2)), ((3, 2), (2, 2)), ((1, 2), (2, 2)), ((2, 2), (1, 2)), ((3, 0), (3, 1)), ((3, 1), (3, 0)), ((0, 0), (1, 0)), ((1, 0), (0, 0)), ((1, 3), (2, 3)), ((2, 3), (1, 3)), ((1, 1), (2, 1)), ((2, 1), (1, 1)), ((0, 0), (0, 1)), ((0, 1), (0, 0)), ((1, 2), (1, 3)), ((1, 3), (1, 2)), ((2, 0), (2, 1)), ((2, 1), (2, 0)), ((0, 1), (1, 1)), ((1, 1), (0, 1)), ((2, 3), (3, 3)), ((3, 3), (2, 3)), ((0, 2), (1, 2)), ((1, 2), (0, 2)), ((3, 1), (3, 2)), ((3, 2), (3, 1)), ((0, 3), (1, 3)), ((1, 3), (0, 3)), ((3, 2), (3, 3)), ((3, 3), (3, 2))]",4,4,2.0973
MP01,1,26,"(2, 3)","(1, 0)",18,3,3,"[((1, 2), (1, 3)), ((1, 3), (1, 2)), ((2, 0), (3, 0)), ((3, 0), (2, 0)), ((2, 2), (2, 3)), ((2, 3), (2, 2)), ((1, 0), (2, 0)), ((2, 0), (1, 0)), ((1, 2), (2, 2)), ((2, 2), (1, 2)), ((1, 1), (2, 1)), ((2, 1), (1, 1)), ((2, 3), (3, 3)), ((3, 3), (2, 3)), ((0, 1), (1, 1)), ((1, 1), (0, 1)), ((2, 1), (3, 1)), ((3, 1), (2, 1)), ((0, 2), (0, 3)), ((0, 3), (0, 2)), ((0, 0), (0, 1)), ((0, 1), (0, 0)), ((0, 3), (1, 3)), ((1, 3), (0, 3)), ((0, 2), (1, 2)), ((1, 2), (0, 2)), ((1, 0), (1, 1)), ((1, 1), (1, 0)), ((3, 1), (3, 2)), ((3, 2), (3, 1)), ((2, 2), (3, 2)), ((3, 2), (2, 2)), ((0, 1), (0, 2)), ((0, 2), (0, 1)), ((3, 0), (3, 1)), ((3, 1), (3, 0))]",6,3,1.0137
MP01,1,27,"(3, 2)","(0, 1)",16,1,3,"[((0, 1), (1, 1)), ((1, 1), (0, 1)), ((1, 2), (1, 3)), ((1, 3), (1, 2)), ((0, 1), (0, 2)), ((0, 2), (0, 1)), ((2, 0), (2, 1)), ((2, 1), (2, 0)), ((0, 2), (0, 3)), ((0, 3), (0, 2)), ((3, 0), (3, 1)), ((3, 1), (3, 0)), ((2, 1), (2, 2)), ((2, 2), (2, 1)), ((0, 0), (1, 0)), ((1, 0), (0, 0)), ((2, 3), (3, 3)), ((3, 3), (2, 3)), ((3, 1), (3, 2)), ((3, 2), (3, 1)), ((1, 1), (2, 1)), ((2, 1), (1, 1)), ((2, 0), (3, 0)), ((3, 0), (2, 0)), ((0, 3), (1, 3)), ((1, 3), (0, 3)), ((0, 0), (0, 1)), ((0, 1), (0, 0)), ((1, 3), (2, 3)), ((2, 3), (1, 3)), ((2, 1), (3, 1)), ((3, 1), (2, 1))]",2,2,2.053
MP01,1,28,"(1, 0)","(2, 3)",15,0,3,"[((1, 3), (2, 3)), ((2, 3), (1, 3)), ((3, 1), (3, 2)), ((3, 2), (3, 1)), ((1, 0), (1, 1)), ((1, 1), (1, 0)), ((0, 1), (0, 2)), ((0, 2), (0, 1)), ((0, 0), (0, 1)), ((0, 1), (0, 0)), ((2, 3), (3, 3)), ((3, 3), (2, 3)), ((2, 2), (3, 2)), ((3, 2), (2, 2)), ((2, 0), (2, 1)), ((2, 1), (2, 0)), ((2, 2), (2, 3)), ((2, 3), (2, 2)), ((3, 0), (3, 1)), ((3, 1), (3, 0)), ((0, 2), (1, 2)), ((1, 2), (0, 2)), ((1, 2), (2, 2)), ((2, 2), (1, 2)), ((1, 0), (2, 0)), ((2, 0), (1, 0)), ((0, 3), (1, 3)), ((1, 3), (0, 3)), ((1, 1), (1, 2)), ((1, 2), (1, 1))]",1,1,1.7346
MP01,1,29,"(3, 2)","(0, 1)",18,3,3,"[((0, 0), (1, 0)), ((1, 0), (0, 0)), ((0, 2), (1, 2)), ((1, 2), (0, 2)), ((2, 0), (3, 0)), ((3, 0), (2, 0)), ((1, 2), (2, 2)), ((2, 2), (1, 2)), ((1, 1), (1, 2)), ((1, 2), (1, 1)), ((1, 2), (1, 3)), ((1, 3), (1, 2)), ((0, 1), (0, 2)), ((0, 2), (0, 1)), ((2, 2), (3, 2)), ((3, 2), (2, 2)), ((1, 3), (2, 3)), ((2, 3), (1, 3)), ((1, 0), (2, 0)), ((2, 0), (1, 0)), ((0, 3), (1, 3)), ((1, 3), (0, 3)), ((1, 0), (1, 1)), ((1, 1), (1, 0)), ((2, 0), (2, 1)), ((2, 1), (2, 0)), ((3, 0), (3, 1)), ((3, 1), (3, 0)), ((2, 3), (3, 3)), ((3, 3), (2, 3)), ((3, 1), (3, 2)), ((3, 2), (3, 1)), ((1, 1), (2, 1)), ((2, 1), (1, 1)), ((2, 1), (2, 2)), ((2, 2), (2, 1))]",7,5,2.895
MP01,1,30,"(2, 3)","(1, 0)",16,1,3,"[((3, 0), (3, 1)), ((3, 1), (3, 0)), ((2, 1), (3, 1)), ((3, 1), (2, 1)), ((2, 1), (2, 2)), ((2, 2), (2, 1)), ((0, 3), (1, 3)), ((1, 3), (0, 3)), ((1, 0), (2, 0)), ((2, 0), (1, 0)), ((0, 1), (0, 2)), ((0, 2), (0, 1)), ((2, 0), (3, 0)), ((3, 0), (2, 0)), ((1, 2), (1, 3)), ((1, 3), (1, 2)), ((1, 3), (2, 3)), ((2, 3), (1, 3)), ((0, 0), (0, 1)), ((0, 1), (0, 0)), ((1, 1), (1, 2)), ((1, 2), (1, 1)), ((2, 3), (3, 3)), ((3, 3), (2, 3)), ((1, 1), (2, 1)), ((2, 1), (1, 1)), ((0, 1), (1, 1)), ((1, 1), (0, 1)), ((3, 1), (3, 2)), ((3, 2), (3, 1)), ((1, 0), (1, 1)), ((1, 1), (1, 0))]",2,2,0.8353
MP01,1,31,"(3, 2)","(0, 1)",15,0,3,"[((2, 3), (3, 3)), ((3, 3), (2, 3)), ((2, 0), (3, 0)), ((3, 0), (2, 0)), ((3, 2), (3, 3)), ((3, 3), (3, 2)), ((0, 0), (0, 1)), ((0, 1), (0, 0)), ((0, 2), (1, 2)), ((1, 2), (0, 2)), ((2, 0), (2, 1)), ((2, 1), (2, 0)), ((1, 1), (2, 1)), ((2, 1), (1, 1)), ((0, 1), (1, 1)), ((1, 1), (0, 1)), ((1, 0), (1, 1)), ((1, 1), (1, 0)), ((2, 1), (3, 1)), ((3, 1), (2, 1)), ((1, 2), (1, 3)), ((1, 3), (1, 2)), ((1, 2), (2, 2)), ((2, 2), (1, 2)), ((1, 1), (1, 2)), ((1, 2), (1, 1)), ((3, 1), (3, 2)), ((3, 2), (3, 1)), ((0, 2), (0, 3)), ((0, 3), (0, 2))]",1,1,0.7044
MP01,1,32,"(0, 2)","(3, 1)",18,3,3,"[((2, 3), (3, 3)), ((3, 3), (2, 3)), ((1, 2), (2, 2)), ((2, 2), (1, 2)), ((2, 2), (3, 2)), ((3, 2), (2, 2)), ((0, 0), (0, 1)), ((0, 1), (0, 0)), ((3, 1), (3, 2)), ((3, 2), (3, 1)), ((0, 2), (0, 3)), ((0, 3), (0, 2)), ((1, 1), (2, 1)), ((2, 1), (1, 1)), ((0, 2), (1, 2)), ((1, 2), (0, 2)), ((2, 0), (3, 0)), ((3, 0), (2, 0)), ((0, 1), (0, 2)), ((0, 2), (0, 1)), ((0, 1), (1, 1)), ((1, 1), (0, 1)), ((1, 0), (2, 0)), ((2, 0), (1, 0)), ((1, 3), (2, 3)), ((2, 3), (1, 3)), ((0, 0), (1, 0)), ((1, 0), (0, 0)), ((2, 0), (2, 1)), ((2, 1), (2, 0)), ((1, 0), (1, 1)), ((1, 1), (1, 0)), ((3, 2), (3, 3)), ((3, 3), (3, 2)), ((2, 1), (2, 2)), ((2, 2), (2, 1))]",5,5,2.1964
MP01,1,33,"(1, 3)","(2, 0)",16,1,3,"[((0, 2), (0, 3)), ((0, 3), (0, 2)), ((2, 2), (2, 3)), ((2, 3), (2, 2)), ((3, 0), (3, 1)), ((3, 1), (3, 0)), ((0, 1), (1, 1)), ((1, 1), (0, 1)), ((1, 3), (2, 3)), ((2, 3), (1, 3)), ((0, 0), (0, 1)), ((0, 1), (0, 0)), ((2, 2), (3, 2)), ((3, 2), (2, 2)), ((3, 1), (3, 2)), ((3, 2), (3, 1)), ((0, 2), (1, 2)), ((1, 2), (0, 2)), ((1, 1), (2, 1)), ((2, 1), (1, 1)), ((1, 0), (1, 1)), ((1, 1), (1, 0)), ((2, 3), (3, 3)), ((3, 3), (2, 3)), ((2, 0), (3, 0)), ((3, 0), (2, 0)), ((2, 0), (2, 1)), ((2, 1), (2, 0)), ((2, 1), (2, 2)), ((2, 2), (2, 1)), ((0, 1), (0, 2)), ((0, 2), (0, 1))]",2,2,0.6914
MP01,1,34,"(3, 2)","(0, 1)",16,1,3,"[((1, 2), (1, 3)), ((1, 3), (1, 2)), ((2, 2), (3, 2)), ((3, 2), (2, 2)), ((1, 0), (2, 0)), ((2, 0), (1, 0)), ((0, 1), (0, 2)), ((0, 2), (0, 1)), ((1, 1), (2, 1)), ((2, 1), (1, 1)), ((2, 0), (3, 0)), ((3, 0), (2, 0)), ((2, 1), (2, 2)), ((2, 2), (2, 1)), ((0, 2), (0, 3)), ((0, 3), (0, 2)), ((3, 1), (3, 2)), ((3, 2), (3, 1)), ((2, 2), (2, 3)), ((2, 3), (2, 2)), ((2, 3), (3, 3)), ((3, 3), (2, 3)), ((1, 3), (2, 3)), ((2, 3), (1, 3)), ((3, 2), (3, 3)), ((3, 3), (3, 2)), ((3, 0), (3, 1)), ((3, 1), (3, 0)), ((0, 1), (1, 1)), ((1, 1), (0, 1)), ((0, 0), (0, 1)), ((0, 1), (0, 0))]",2,1,1.0248
MP01,1,35,"(3, 1)","(0, 2)",17,2,3,"[((0, 1), (0, 2)), ((0, 2), (0, 1)), ((0, 0), (0, 1)), ((0, 1), (0, 0)), ((1, 1), (1, 2)), ((1, 2), (1, 1)), ((3, 2), (3, 3)), ((3, 3), (3, 2)), ((0, 1), (1, 1)), ((1, 1), (0, 1)), ((2, 1), (2, 2)), ((2, 2), (2, 1)), ((3, 1), (3, 2)), ((3, 2), (3, 1)), ((2, 0), (3, 0)), ((3, 0), (2, 0)), ((2, 1), (3, 1)), ((3, 1), (2, 1)), ((1, 3), (2, 3)), ((2, 3), (1, 3)), ((0, 3), (1, 3)), ((1, 3), (0, 3)), ((0, 0), (1, 0)), ((1, 0), (0, 0)), ((2, 2), (2, 3)), ((2, 3), (2, 2)), ((1, 1), (2, 1)), ((2, 1), (1, 1)), ((3, 0), (3, 1)), ((3, 1), (3, 0)), ((0, 2), (0, 3)), ((0, 3), (0, 2)), ((1, 0), (2, 0)), ((2, 0), (1, 0))]",4,3,1.1697
MP01,1,36,"(3, 2)","(0, 1)",17,2,3,"[((2, 3), (3, 3)), ((3, 3), (2, 3)), ((1, 0), (1, 1)), ((1, 1), (1, 0)), ((1, 0), (2, 0)), ((2, 0), (1, 0)), ((2, 1), (3, 1)), ((3, 1), (2, 1)), ((3, 2), (3, 3)), ((3, 3), (3, 2)), ((0, 3), (1, 3)), ((1, 3), (0, 3)), ((0, 2), (1, 2)), ((1, 2), (0, 2)), ((0, 0), (1, 0)), ((1, 0), (0, 0)), ((2, 0), (3, 0)), ((3, 0), (2, 0)), ((2, 2), (2, 3)), ((2, 3), (2, 2)), ((0, 1), (0, 2)), ((0, 2), (0, 1)), ((1, 3), (2, 3)), ((2, 3), (1, 3)), ((0, 2), (0, 3)), ((0, 3), (0, 2)), ((1, 1), (2, 1)), ((2, 1), (1, 1)), ((0, 0), (0, 1)), ((0, 1), (0, 0)), ((1, 2), (1, 3)), ((1, 3), (1, 2)), ((1, 2), (2, 2)), ((2, 2), (1, 2))]",4,6,1.63
MP01,1,37,"(3, 2)","(0, 1)",16,1,3,"[((0, 1), (1, 1)), ((1, 1), (0, 1)), ((2, 0), (2, 1)), ((2, 1), (2, 0)), ((1, 0), (1, 1)), ((1, 1), (1, 0)), ((0, 1), (0, 2)), ((0, 2), (0, 1)), ((3, 0), (3, 1)), ((3, 1), (3, 0)), ((0, 0), (1, 0)), ((1, 0), (0, 0)), ((2, 1), (2, 2)), ((2, 2), (2, 1)), ((3, 1), (3, 2)), ((3, 2), (3, 1)), ((1, 1), (2, 1)), ((2, 1), (1, 1)), ((2, 3), (3, 3)), ((3, 3), (2, 3)), ((2, 0), (3, 0)), ((3, 0), (2, 0)), ((0, 2), (0, 3)), ((0, 3), (0, 2)), ((1, 3), (2, 3)), ((2, 3), (1, 3)), ((2, 2), (2, 3)), ((2, 3), (2, 2)), ((1, 2), (2, 2)), ((2, 2), (1, 2)), ((1, 0), (2, 0)), ((2, 0), (1, 0))]",2,4,1.0227
MP01,1,38,"(3, 1)","(0, 2)",17,2,3,"[((3, 0), (3, 1)), ((3, 1), (3, 0)), ((0, 3), (1, 3)), ((1, 3), (0, 3)), ((2, 0), (2, 1)), ((2, 1), (2, 0)), ((1, 1), (1, 2)), ((1, 2), (1, 1)), ((0, 0), (1, 0)), ((1, 0), (0, 0)), ((1, 1), (2, 1)), ((2, 1), (1, 1)), ((2, 2), (3, 2)), ((3, 2), (2, 2)), ((2, 1), (3, 1)), ((3, 1), (2, 1)), ((0, 1), (0, 2)), ((0, 2), (0, 1)), ((1, 2), (1, 3)), ((1, 3), (1, 2)), ((1, 0), (1, 1)), ((1, 1), (1, 0)), ((2, 1), (2, 2)), ((2, 2), (2, 1)), ((1, 3), (2, 3)), ((2, 3), (1, 3)), ((0, 2), (0, 3)), ((0, 3), (0, 2)), ((3, 2), (3, 3)), ((3, 3), (3, 2)), ((0, 1), (1, 1)), ((1, 1), (0, 1)), ((2, 2), (2, 3)), ((2, 3), (2, 2))]",4,54,3.792
MP01,1,39,"(3, 2)","(0, 1)",18,3,3,"[((1, 1), (1, 2)), ((1, 2), (1, 1)), ((0, 3), (1, 3)), ((1, 3), (0, 3)), ((2, 0), (2, 1)), ((2, 1), (2, 0)), ((1, 1), (2, 1)), ((2, 1), (1, 1)), ((2, 1), (2, 2)), ((2, 2), (2, 1)), ((1, 0), (1, 1)), ((1, 1), (1, 0)), ((3, 0), (3, 1)), ((3, 1), (3, 0)), ((1, 2), (1, 3)), ((1, 3), (1, 2)), ((3, 1), (3, 2)), ((3, 2), (3, 1)), ((2, 1), (3, 1)), ((3, 1), (2, 1)), ((1, 3), (2, 3)), ((2, 3), (1, 3)), ((0, 0), (1, 0)), ((1, 0), (0, 0)), ((0, 1), (0, 2)), ((0, 2), (0, 1)), ((2, 2), (2, 3)), ((2, 3), (2, 2)), ((0, 0), (0, 1)), ((0, 1), (0, 0)), ((0, 2), (1, 2)), ((1, 2), (0, 2)), ((0, 2), (0, 3)), ((0, 3), (0, 2)), ((3, 2), (3, 3)), ((3, 3), (3, 2))]",7,2,1.1345
MP01,1,40,"(1, 3)","(2, 0)",18,3,3,"[((2, 0), (2, 1)), ((2, 1), (2, 0)), ((0, 0), (0, 1)), ((0, 1), (0, 0)), ((2, 0), (3, 0)), ((3, 0), (2, 0)), ((0, 1), (1, 1)), ((1, 1), (0, 1)), ((3, 1), (3, 2)), ((3, 2), (3, 1)), ((0, 1), (0, 2)), ((0, 2), (0, 1)), ((1, 3), (2, 3)), ((2, 3), (1, 3)), ((3, 2), (3, 3)), ((3, 3), (3, 2)), ((1, 1), (2, 1)), ((2, 1), (1, 1)), ((2, 2), (2, 3)), ((2, 3), (2, 2)), ((1, 0), (1, 1)), ((1, 1), (1, 0)), ((0, 3), (1, 3)), ((1, 3), (0, 3)), ((1, 1), (1, 2)), ((1, 2), (1, 1)), ((2, 2), (3, 2)), ((3, 2), (2, 2)), ((3, 0), (3, 1)), ((3, 1), (3, 0)), ((2, 3), (3, 3)), ((3, 3), (2, 3)), ((1, 2), (1, 3)), ((1, 3), (1, 2)), ((2, 1), (2, 2)), ((2, 2), (2, 1))]",7,4,0.9269
MP01,1,41,"(0, 1)","(3, 2)",18,3,3,"[((2, 3), (3, 3)), ((3, 3), (2, 3)), ((3, 0), (3, 1)), ((3, 1), (3, 0)), ((3, 1), (3, 2)), ((3, 2), (3, 1)), ((1, 3), (2, 3)), ((2, 3), (1, 3)), ((0, 0), (1, 0)), ((1, 0), (0, 0)), ((0, 2), (1, 2)), ((1, 2), (0, 2)), ((0, 3), (1, 3)), ((1, 3), (0, 3)), ((0, 1), (0, 2)), ((0, 2), (0, 1)), ((1, 0), (2, 0)), ((2, 0), (1, 0)), ((1, 1), (1, 2)), ((1, 2), (1, 1)), ((2, 0), (3, 0)), ((3, 0), (2, 0)), ((1, 1), (2, 1)), ((2, 1), (1, 1)), ((1, 2), (1, 3)), ((1, 3), (1, 2)), ((1, 0), (1, 1)), ((1, 1), (1, 0)), ((2, 1), (3, 1)), ((3, 1), (2, 1)), ((2, 2), (2, 3)), ((2, 3), (2, 2)), ((3, 2), (3, 3)), ((3, 3), (3, 2)), ((0, 2), (0, 3)), ((0, 3), (0, 2))]",6,4,1.0667
MP01,1,42,"(1, 0)","(2, 3)",18,3,3,"[((1, 2), (1, 3)), ((1, 3), (1, 2)), ((3, 0), (3, 1)), ((3, 1), (3, 0)), ((2, 1), (3, 1)), ((3, 1), (2, 1)), ((1, 2), (2, 2)), ((2, 2), (1, 2)), ((2, 0), (2, 1)), ((2, 1), (2, 0)), ((3, 1), (3, 2)), ((3, 2), (3, 1)), ((2, 2), (2, 3)), ((2, 3), (2, 2)), ((1, 3), (2, 3)), ((2, 3), (1, 3)), ((0, 1), (1, 1)), ((1, 1), (0, 1)), ((1, 1), (1, 2)), ((1, 2), (1, 1)), ((2, 3), (3, 3)), ((3, 3), (2, 3)), ((3, 2), (3, 3)), ((3, 3), (3, 2)), ((0, 2), (1, 2)), ((1, 2), (0, 2)), ((0, 1), (0, 2)), ((0, 2), (0, 1)), ((2, 1), (2, 2)), ((2, 2), (2, 1)), ((0, 0), (0, 1)), ((0, 1), (0, 0)), ((0, 0), (1, 0)), ((1, 0), (0, 0)), ((0, 2), (0, 3)), ((0, 3), (0, 2))]",6,3,1.2365
MP01,1,43,"(3, 1)","(0, 2)",18,3,3,"[((2, 1), (3, 1)), ((3, 1), (2, 1)), ((1, 2), (1, 3)), ((1, 3), (1, 2)), ((3, 2), (3, 3)), ((3, 3), (3, 2)), ((2, 3), (3, 3)), ((3, 3), (2, 3)), ((0, 2), (0, 3)), ((0, 3), (0, 2)), ((1, 1), (1, 2)), ((1, 2), (1, 1)), ((0, 1), (1, 1)), ((1, 1), (0, 1)), ((0, 3), (1, 3)), ((1, 3), (0, 3)), ((2, 2), (2, 3)), ((2, 3), (2, 2)), ((1, 0), (2, 0)), ((2, 0), (1, 0)), ((2, 2), (3, 2)), ((3, 2), (2, 2)), ((3, 0), (3, 1)), ((3, 1), (3, 0)), ((0, 0), (0, 1)), ((0, 1), (0, 0)), ((2, 1), (2, 2)), ((2, 2), (2, 1)), ((3, 1), (3, 2)), ((3, 2), (3, 1)), ((1, 0), (1, 1)), ((1, 1), (1, 0)), ((0, 1), (0, 2)), ((0, 2), (0, 1)), ((2, 0), (2, 1)), ((2, 1), (2, 0))]",6,2,1.2884
MP01,1,44,"(3, 2)","(0, 1)",17,2,3,"[((2, 2), (2, 3)), ((2, 3), (2, 2)), ((2, 1), (2, 2)), ((2, 2), (2, 1)), ((1, 3), (2, 3)), ((2, 3), (1, 3)), ((3, 2), (3, 3)), ((3, 3), (3, 2)), ((3, 1), (3, 2)), ((3, 2), (3, 1)), ((1, 2), (1, 3)), ((1, 3), (1, 2)), ((0, 2), (1, 2)), ((1, 2), (0, 2)), ((2, 0), (2, 1)), ((2, 1), (2, 0)), ((2, 0), (3, 0)), ((3, 0), (2, 0)), ((0, 3), (1, 3)), ((1, 3), (0, 3)), ((0, 0), (0, 1)), ((0, 1), (0, 0)), ((3, 0), (3, 1)), ((3, 1), (3, 0)), ((1, 0), (1, 1)), ((1, 1), (1, 0)), ((0, 1), (1, 1)), ((1, 1), (0, 1)), ((1, 0), (2, 0)), ((2, 0), (1, 0)), ((1, 1), (1, 2)), ((1, 2), (1, 1)), ((1, 2), (2, 2)), ((2, 2), (1, 2))]",3,6,1.663
MP01,1,45,"(3, 2)","(0, 1)",17,2,3,"[((3, 1), (3, 2)), ((3, 2), (3, 1)), ((3, 2), (3, 3)), ((3, 3), (3, 2)), ((1, 1), (1, 2)), ((1, 2), (1, 1)), ((0, 3), (1, 3)), ((1, 3), (0, 3)), ((0, 0), (1, 0)), ((1, 0), (0, 0)), ((2, 2), (2, 3)), ((2, 3), (2, 2)), ((2, 1), (2, 2)), ((2, 2), (2, 1)), ((2, 3), (3, 3)), ((3, 3), (2, 3)), ((0, 1), (1, 1)), ((1, 1), (0, 1)), ((2, 2), (3, 2)), ((3, 2), (2, 2)), ((0, 2), (1, 2)), ((1, 2), (0, 2)), ((3, 0), (3, 1)), ((3, 1), (3, 0)), ((1, 0), (1, 1)), ((1, 1), (1, 0)), ((1, 2), (1, 3)), ((1, 3), (1, 2)), ((2, 0), (3, 0)), ((3, 0), (2, 0)), ((1, 3), (2, 3)), ((2, 3), (1, 3)), ((1, 0), (2, 0)), ((2, 0), (1, 0))]",5,2,0.905
MP01,1,46,"(3, 2)","(0, 1)",17,2,3,"[((0, 0), (0, 1)), ((0, 1), (0, 0)), ((2, 2), (3, 2)), ((3, 2), (2, 2)), ((0, 1), (0, 2)), ((0, 2), (0, 1)), ((1, 1), (1, 2)), ((1, 2), (1, 1)), ((2, 1), (3, 1)), ((3, 1), (2, 1)), ((2, 0), (3, 0)), ((3, 0), (2, 0)), ((0, 2), (1, 2)), ((1, 2), (0, 2)), ((3, 2), (3, 3)), ((3, 3), (3, 2)), ((2, 3), (3, 3)), ((3, 3), (2, 3)), ((1, 2), (1, 3)), ((1, 3), (1, 2)), ((0, 2), (0, 3)), ((0, 3), (0, 2)), ((1, 1), (2, 1)), ((2, 1), (1, 1)), ((2, 1), (2, 2)), ((2, 2), (2, 1)), ((2, 2), (2, 3)), ((2, 3), (2, 2)), ((1, 0), (2, 0)), ((2, 0), (1, 0)), ((3, 0), (3, 1)), ((3, 1), (3, 0)), ((2, 0), (2, 1)), ((2, 1), (2, 0))]",6,2,0.6846
MP01,1,47,"(0, 2)","(3, 1)",17,2,3,"[((2, 3), (3, 3)), ((3, 3), (2, 3)), ((3, 0), (3, 1)), ((3, 1), (3, 0)), ((1, 0), (2, 0)), ((2, 0), (1, 0)), ((0, 2), (0, 3)), ((0, 3), (0, 2)), ((1, 3), (2, 3)), ((2, 3), (1, 3)), ((2, 2), (2, 3)), ((2, 3), (2, 2)), ((0, 2), (1, 2)), ((1, 2), (0, 2)), ((1, 1), (1, 2)), ((1, 2), (1, 1)), ((0, 0), (1, 0)), ((1, 0), (0, 0)), ((0, 1), (1, 1)), ((1, 1), (0, 1)), ((1, 2), (2, 2)), ((2, 2), (1, 2)), ((2, 2), (3, 2)), ((3, 2), (2, 2)), ((3, 1), (3, 2)), ((3, 2), (3, 1)), ((1, 1), (2, 1)), ((2, 1), (1, 1)), ((2, 0), (2, 1)), ((2, 1), (2, 0)), ((2, 1), (2, 2)), ((2, 2), (2, 1)), ((0, 3), (1, 3)), ((1, 3), (0, 3))]",5,3,1.0703
MP01,1,48,"(1, 0)","(2, 3)",16,1,3,"[((3, 0), (3, 1)), ((3, 1), (3, 0)), ((3, 2), (3, 3)), ((3, 3), (3, 2)), ((2, 0), (2, 1)), ((2, 1), (2, 0)), ((1, 3), (2, 3)), ((2, 3), (1, 3)), ((1, 2), (1, 3)), ((1, 3), (1, 2)), ((1, 1), (2, 1)), ((2, 1), (1, 1)), ((0, 2), (1, 2)), ((1, 2), (0, 2)), ((0, 3), (1, 3)), ((1, 3), (0, 3)), ((1, 0), (2, 0)), ((2, 0), (1, 0)), ((2, 2), (2, 3)), ((2, 3), (2, 2)), ((0, 2), (0, 3)), ((0, 3), (0, 2)), ((0, 1), (1, 1)), ((1, 1), (0, 1)), ((2, 2), (3, 2)), ((3, 2), (2, 2)), ((2, 1), (2, 2)), ((2, 2), (2, 1)), ((3, 1), (3, 2)), ((3, 2), (3, 1)), ((0, 0), (1, 0)), ((1, 0), (0, 0))]",1,1,0.668
MP01,1,49,"(1, 0)","(2, 3)",16,1,3,"[((2, 1), (2, 2)), ((2, 2), (2, 1)), ((0, 0), (1, 0)), ((1, 0), (0, 0)), ((2, 0), (3, 0)), ((3, 0), (2, 0)), ((2, 3), (3, 3)), ((3, 3), (2, 3)), ((0, 2), (0, 3)), ((0, 3), (0, 2)), ((1, 1), (1, 2)), ((1, 2), (1, 1)), ((1, 3), (2, 3)), ((2, 3), (1, 3)), ((1, 0), (1, 1)), ((1, 1), (1, 0)), ((0, 0), (0, 1)), ((0, 1), (0, 0)), ((1, 1), (2, 1)), ((2, 1), (1, 1)), ((2, 1), (3, 1)), ((3, 1), (2, 1)), ((3, 2), (3, 3)), ((3, 3), (3, 2)), ((3, 0), (3, 1)), ((3, 1), (3, 0)), ((0, 1), (0, 2)), ((0, 2), (0, 1)), ((0, 3), (1, 3)), ((1, 3), (0, 3)), ((2, 2), (2, 3)), ((2, 3), (2, 2))]",2,2,0.7887
MP01,1,50,"(1, 0)","(2, 3)",17,2,3,"[((0, 1), (0, 2)), ((0, 2), (0, 1)), ((3, 0), (3, 1)), ((3, 1), (3, 0)), ((0, 0), (0, 1)), ((0, 1), (0, 0)), ((0, 2), (1, 2)), ((1, 2), (0, 2)), ((3, 1), (3, 2)), ((3, 2), (3, 1)), ((0, 1), (1, 1)), ((1, 1), (0, 1)), ((1, 1), (1, 2)), ((1, 2), (1, 1)), ((2, 2), (3, 2)), ((3, 2), (2, 2)), ((2, 3), (3, 3)), ((3, 3), (2, 3)), ((0, 3), (1, 3)), ((1, 3), (0, 3)), ((2, 0), (2, 1)), ((2, 1), (2, 0)), ((2, 2), (2, 3)), ((2, 3), (2, 2)), ((1, 0), (1, 1)), ((1, 1), (1, 0)), ((1, 3), (2, 3)), ((2, 3), (1, 3)), ((1, 1), (2, 1)), ((2, 1), (1, 1)), ((2, 1), (3, 1)), ((3, 1), (2, 1)), ((0, 2), (0, 3)), ((0, 3), (0, 2))]",5,2,1.3698
MP01,1,51,"(3, 1)","(0, 2)",18,3,3,"[((3, 1), (3, 2)), ((3, 2), (3, 1)), ((3, 2), (3, 3)), ((3, 3), (3, 2)), ((1, 3), (2, 3)), ((2, 3), (1, 3)), ((0, 1), (0, 2)), ((0, 2), (0, 1)), ((1, 0), (2, 0)), ((2, 0), (1, 0)), ((2, 0), (2, 1)), ((2, 1), (2, 0)), ((2, 2), (2, 3)), ((2, 3), (2, 2)), ((0, 0), (0, 1)), ((0, 1), (0, 0)), ((2, 0), (3, 0)), ((3, 0), (2, 0)), ((1, 1), (2, 1)), ((2, 1), (1, 1)), ((1, 1), (1, 2)), ((1, 2), (1, 1)), ((2, 1), (2, 2)), ((2, 2), (2, 1)), ((1, 2), (1, 3)), ((1, 3), (1, 2)), ((1, 0), (1, 1)), ((1, 1), (1, 0)), ((2, 3), (3, 3)), ((3, 3), (2, 3)), ((2, 2), (3, 2)), ((3, 2), (2, 2)), ((0, 2), (1, 2)), ((1, 2), (0, 2)), ((0, 2), (0, 3)), ((0, 3), (0, 2))]",6,2,0.7875
MP01,1,52,"(0, 1)","(3, 2)",16,1,3,"[((2, 2), (3, 2)), ((3, 2), (2, 2)), ((2, 1), (2, 2)), ((2, 2), (2, 1)), ((1, 2), (2, 2)), ((2, 2), (1, 2)), ((0, 1), (0, 2)), ((0, 2), (0, 1)), ((2, 3), (3, 3)), ((3, 3), (2, 3)), ((0, 0), (1, 0)), ((1, 0), (0, 0)), ((0, 2), (1, 2)), ((1, 2), (0, 2)), ((3, 0), (3, 1)), ((3, 1), (3, 0)), ((2, 0), (3, 0)), ((3, 0), (2, 0)), ((2, 2), (2, 3)), ((2, 3), (2, 2)), ((1, 0), (2, 0)), ((2, 0), (1, 0)), ((1, 1), (2, 1)), ((2, 1), (1, 1)), ((0, 3), (1, 3)), ((1, 3), (0, 3)), ((0, 2), (0, 3)), ((0, 3), (0, 2)), ((1, 1), (1, 2)), ((1, 2), (1, 1)), ((2, 1), (3, 1)), ((3, 1), (2, 1))]",2,2,0.7866
MP01,1,53,"(1, 0)","(2, 3)",15,0,3,"[((3, 2), (3, 3)), ((3, 3), (3, 2)), ((2, 0), (3, 0)), ((3, 0), (2, 0)), ((1, 2), (1, 3)), ((1, 3), (1, 2)), ((3, 0), (3, 1)), ((3, 1), (3, 0)), ((0, 0), (0, 1)), ((0, 1), (0, 0)), ((0, 2), (0, 3)), ((0, 3), (0, 2)), ((2, 1), (3, 1)), ((3, 1), (2, 1)), ((0, 0), (1, 0)), ((1, 0), (0, 0)), ((1, 1), (2, 1)), ((2, 1), (1, 1)), ((1, 3), (2, 3)), ((2, 3), (1, 3)), ((3, 1), (3, 2)), ((3, 2), (3, 1)), ((1, 0), (2, 0)), ((2, 0), (1, 0)), ((0, 2), (1, 2)), ((1, 2), (0, 2)), ((1, 1), (1, 2)), ((1, 2), (1, 1)), ((2, 2), (2, 3)), ((2, 3), (2, 2))]",1,1,0.3402
MP01,1,54,"(1, 0)","(2, 3)",17,2,3,"[((2, 1), (2, 2)), ((2, 2), (2, 1)), ((3, 1), (3, 2)), ((3, 2), (3, 1)), ((1, 2), (2, 2)), ((2, 2), (1, 2)), ((1, 1), (1, 2)), ((1, 2), (1, 1)), ((0, 2), (1, 2)), ((1, 2), (0, 2)), ((1, 0), (2, 0)), ((2, 0), (1, 0)), ((1, 0), (1, 1)), ((1, 1), (1, 0)), ((1, 2), (1, 3)), ((1, 3), (1, 2)), ((2, 0), (2, 1)), ((2, 1), (2, 0)), ((0, 2), (0, 3)), ((0, 3), (0, 2)), ((1, 3), (2, 3)), ((2, 3), (1, 3)), ((2, 0), (3, 0)), ((3, 0), (2, 0)), ((2, 3), (3, 3)), ((3, 3), (2, 3)), ((0, 0), (1, 0)), ((1, 0), (0, 0)), ((0, 3), (1, 3)), ((1, 3), (0, 3)), ((3, 0), (3, 1)), ((3, 1), (3, 0)), ((0, 0), (0, 1)), ((0, 1), (0, 0))]",4,4,1.0514
MP01,1,55,"(1, 3)","(2, 0)",15,0,3,"[((1, 0), (1, 1)), ((1, 1), (1, 0)), ((3, 2), (3, 3)), ((3, 3), (3, 2)), ((3, 0), (3, 1)), ((3, 1), (3, 0)), ((2, 3), (3, 3)), ((3, 3), (2, 3)), ((2, 0), (3, 0)), ((3, 0), (2, 0)), ((2, 1), (3, 1)), ((3, 1), (2, 1)), ((0, 1), (1, 1)), ((1, 1), (0, 1)), ((1, 1), (2, 1)), ((2, 1), (1, 1)), ((1, 2), (1, 3)), ((1, 3), (1, 2)), ((2, 2), (2, 3)), ((2, 3), (2, 2)), ((0, 0), (0, 1)), ((0, 1), (0, 0)), ((0, 3), (1, 3)), ((1, 3), (0, 3)), ((1, 3), (2, 3)), ((2, 3), (1, 3)), ((0, 2), (0, 3)), ((0, 3), (0, 2)), ((2, 1), (2, 2)), ((2, 2), (2, 1))]",1,1,0.6213
MP01,1,56,"(2, 0)","(1, 3)",16,1,3,"[((2, 2), (2, 3)), ((2, 3), (2, 2)), ((0, 0), (0, 1)), ((0, 1), (0, 0)), ((1, 3), (2, 3)), ((2, 3), (1, 3)), ((0, 0), (1, 0)), ((1, 0), (0, 0)), ((3, 1), (3, 2)), ((3, 2), (3, 1)), ((1, 0), (2, 0)), ((2, 0), (1, 0)), ((3, 2), (3, 3)), ((3, 3), (3, 2)), ((0, 1), (0, 2)), ((0, 2), (0, 1)), ((2, 3), (3, 3)), ((3, 3), (2, 3)), ((3, 0), (3, 1)), ((3, 1), (3, 0)), ((1, 2), (2, 2)), ((2, 2), (1, 2)), ((2, 1), (2, 2)), ((2, 2), (2, 1)), ((0, 2), (0, 3)), ((0, 3), (0, 2)), ((0, 3), (1, 3)), ((1, 3), (0, 3)), ((1, 1), (2, 1)), ((2, 1), (1, 1)), ((1, 1), (1, 2)), ((1, 2), (1, 1))]",1,1,0.5042
MP01,1,57,"(1, 3)","(2, 0)",17,2,3,"[((0, 3), (1, 3)), ((1, 3), (0, 3)), ((3, 2), (3, 3)), ((3, 3), (3, 2)), ((0, 2), (0, 3)), ((0, 3), (0, 2)), ((2, 2), (3, 2)), ((3, 2), (2, 2)), ((1, 0), (2, 0)), ((2, 0), (1, 0)), ((0, 1), (0, 2)), ((0, 2), (0, 1)), ((0, 0), (0, 1)), ((0, 1), (0, 0)), ((1, 1), (1, 2)), ((1, 2), (1, 1)), ((3, 1), (3, 2)), ((3, 2), (3, 1)), ((0, 2), (1, 2)), ((1, 2), (0, 2)), ((1, 3), (2, 3)), ((2, 3), (1, 3)), ((2, 1), (2, 2)), ((2, 2), (2, 1)), ((0, 0), (1, 0)), ((1, 0), (0, 0)), ((2, 3), (3, 3)), ((3, 3), (2, 3)), ((2, 0), (3, 0)), ((3, 0), (2, 0)), ((1, 2), (1, 3)), ((1, 3), (1, 2)), ((3, 0), (3, 1)), ((3, 1), (3, 0))]",5,3,0.8893
MP01,1,58,"(3, 2)","(0, 1)",18,3,3,"[((0, 2), (0, 3)), ((0, 3), (0, 2)), ((3, 0), (3, 1)), ((3, 1), (3, 0)), ((2, 2), (3, 2)), ((3, 2), (2, 2)), ((0, 1), (1, 1)), ((1, 1), (0, 1)), ((1, 2), (2, 2)), ((2, 2), (1, 2)), ((0, 2), (1, 2)), ((1, 2), (0, 2)), ((1, 0), (1, 1)), ((1, 1), (1, 0)), ((3, 2), (3, 3)), ((3, 3), (3, 2)), ((2, 0), (3, 0)), ((3, 0), (2, 0)), ((0, 3), (1, 3)), ((1, 3), (0, 3)), ((1, 1), (1, 2)), ((1, 2), (1, 1)), ((0, 0), (0, 1)), ((0, 1), (0, 0)), ((1, 1), (2, 1)), ((2, 1), (1, 1)), ((2, 1), (3, 1)), ((3, 1), (2, 1)), ((0, 1), (0, 2)), ((0, 2), (0, 1)), ((2, 3), (3, 3)), ((3, 3), (2, 3)), ((0, 0), (1, 0)), ((1, 0), (0, 0)), ((2, 0), (2, 1)), ((2, 1), (2, 0))]",3,4,3.0371
MP01,1,59,"(2, 3)","(1, 0)",16,1,3,"[((3, 1), (3, 2)), ((3, 2), (3, 1)), ((2, 2), (2, 3)), ((2, 3), (2, 2)), ((0, 0), (1, 0)), ((1, 0), (0, 0)), ((1, 1), (1, 2)), ((1, 2), (1, 1)), ((0, 1), (0, 2)), ((0, 2), (0, 1)), ((1, 0), (1, 1)), ((1, 1), (1, 0)), ((2, 1), (3, 1)), ((3, 1), (2, 1)), ((2, 3), (3, 3)), ((3, 3), (2, 3)), ((1, 0), (2, 0)), ((2, 0), (1, 0)), ((0, 3), (1, 3)), ((1, 3), (0, 3)), ((0, 1), (1, 1)), ((1, 1), (0, 1)), ((2, 2), (3, 2)), ((3, 2), (2, 2)), ((2, 1), (2, 2)), ((2, 2), (2, 1)), ((1, 2), (2, 2)), ((2, 2), (1, 2)), ((1, 3), (2, 3)), ((2, 3), (1, 3)), ((2, 0), (3, 0)), ((3, 0), (2, 0))]",3,2,0.6436
MP01,1,60,"(0, 1)","(3, 2)",17,2,3,"[((0, 1), (0, 2)), ((0, 2), (0, 1)), ((2, 0), (3, 0)), ((3, 0), (2, 0)), ((3, 2), (3, 3)), ((3, 3), (3, 2)), ((1, 1), (1, 2)), ((1, 2), (1, 1)), ((1, 0), (1, 1)), ((1, 1), (1, 0)), ((0, 0), (0, 1)), ((0, 1), (0, 0)), ((3, 0), (3, 1)), ((3, 1), (3, 0)), ((1, 2), (2, 2)), ((2, 2), (1, 2)), ((0, 3), (1, 3)), ((1, 3), (0, 3)), ((3, 1), (3, 2)), ((3, 2), (3, 1)), ((2, 2), (2, 3)), ((2, 3), (2, 2)), ((1, 3), (2, 3)), ((2, 3), (1, 3)), ((0, 2), (1, 2)), ((1, 2), (0, 2)), ((2, 2), (3, 2)), ((3, 2), (2, 2)), ((2, 1), (2, 2)), ((2, 2), (2, 1)), ((0, 1), (1, 1)), ((1, 1), (0, 1)), ((2, 0), (2, 1)), ((2, 1), (2, 0))]",4,3,1.7037
MP01,1,61,"(3, 2)","(0, 1)",18,3,3,"[((0, 1), (0, 2)), ((0, 2), (0, 1)), ((0, 0), (1, 0)), ((1, 0), (0, 0)), ((2, 2), (3, 2)), ((3, 2), (2, 2)), ((1, 1), (1, 2)), ((1, 2), (1, 1)), ((0, 3), (1, 3)), ((1, 3), (0, 3)), ((3, 0), (3, 1)), ((3, 1), (3, 0)), ((0, 1), (1, 1)), ((1, 1), (0, 1)), ((2, 0), (2, 1)), ((2, 1), (2, 0)), ((1, 0), (2, 0)), ((2, 0), (1, 0)), ((1, 3), (2, 3)), ((2, 3), (1, 3)), ((2, 2), (2, 3)), ((2, 3), (2, 2)), ((0, 2), (1, 2)), ((1, 2), (0, 2)), ((1, 2), (2, 2)), ((2, 2), (1, 2)), ((1, 2), (1, 3)), ((1, 3), (1, 2)), ((3, 1), (3, 2)), ((3, 2), (3, 1)), ((2, 1), (2, 2)), ((2, 2), (2, 1)), ((3, 2), (3, 3)), ((3, 3), (3, 2)), ((0, 0), (0, 1)), ((0, 1), (0, 0))]",7,3,2.0381
MP01,1,62,"(2, 3)","(1, 0)",17,2,3,"[((2, 1), (3, 1)), ((3, 1), (2, 1)), ((0, 1), (0, 2)), ((0, 2), (0, 1)), ((1, 3), (2, 3)), ((2, 3), (1, 3)), ((1, 1), (1, 2)), ((1, 2), (1, 1)), ((3, 2), (3, 3)), ((3, 3), (3, 2)), ((2, 0), (3, 0)), ((3, 0), (2, 0)), ((0, 2), (0, 3)), ((0, 3), (0, 2)), ((0, 0), (1, 0)), ((1, 0), (0, 0)), ((2, 1), (2, 2)), ((2, 2), (2, 1)), ((1, 0), (2, 0)), ((2, 0), (1, 0)), ((2, 0), (2, 1)), ((2, 1), (2, 0)), ((1, 2), (1, 3)), ((1, 3), (1, 2)), ((2, 2), (2, 3)), ((2, 3), (2, 2)), ((2, 3), (3, 3)), ((3, 3), (2, 3)), ((1, 0), (1, 1)), ((1, 1), (1, 0)), ((0, 2), (1, 2)), ((1, 2), (0, 2)), ((0, 3), (1, 3)), ((1, 3), (0, 3))]",3,2,0.9517
MP01,1,63,"(1, 3)","(2, 0)",17,2,3,"[((1, 0), (1, 1)), ((1, 1), (1, 0)), ((3, 1), (3, 2)), ((3, 2), (3, 1)), ((1, 0), (2, 0)), ((2, 0), (1, 0)), ((0, 1), (0, 2)), ((0, 2), (0, 1)), ((1, 3), (2, 3)), ((2, 3), (1, 3)), ((1, 1), (1, 2)), ((1, 2), (1, 1)), ((2, 2), (3, 2)), ((3, 2), (2, 2)), ((3, 0), (3, 1)), ((3, 1), (3, 0)), ((2, 3), (3, 3)), ((3, 3), (2, 3)), ((3, 2), (3, 3)), ((3, 3), (3, 2)), ((1, 1), (2, 1)), ((2, 1), (1, 1)), ((1, 2), (2, 2)), ((2, 2), (1, 2)), ((1, 2), (1, 3)), ((1, 3), (1, 2)), ((0, 0), (1, 0)), ((1, 0), (0, 0)), ((0, 2), (1, 2)), ((1, 2), (0, 2)), ((2, 2), (2, 3)), ((2, 3), (2, 2)), ((0, 2), (0, 3)), ((0, 3), (0, 2))]",3,3,4.3456
MP01,2,1,"(2, 0)","(1, 3)",18,3,1,"[((3, 1), (3, 2)), ((3, 2), (3, 1)), ((1, 2), (2, 2)), ((2, 2), (1, 2)), ((3, 0), (3, 1)), ((3, 1), (3, 0)), ((0, 0), (1, 0)), ((1, 0), (0, 0)), ((0, 2), (0, 3)), ((0, 3), (0, 2)), ((1, 1), (2, 1)), ((2, 1), (1, 1)), ((2, 1), (2, 2)), ((2, 2), (2, 1)), ((3, 2), (3, 3)), ((3, 3), (3, 2)), ((2, 2), (2, 3)), ((2, 3), (2, 2)), ((1, 0), (1, 1)), ((1, 1), (1, 0)), ((2, 0), (3, 0)), ((3, 0), (2, 0)), ((2, 3), (3, 3)), ((3, 3), (2, 3)), ((1, 2), (1, 3)), ((1, 3), (1, 2)), ((0, 1), (0, 2)), ((0, 2), (0, 1)), ((0, 1), (1, 1)), ((1, 1), (0, 1)), ((2, 1), (3, 1)), ((3, 1), (2, 1)), ((1, 0), (2, 0)), ((2, 0), (1, 0)), ((0, 0), (0, 1)), ((0, 1), (0, 0))]",6,3,2.7307
MP01,2,2,"(3, 1)","(0, 2)",18,3,1,"[((2, 1), (3, 1)), ((3, 1), (2, 1)), ((1, 1), (1, 2)), ((1, 2), (1, 1)), ((0, 2), (1, 2)), ((1, 2), (0, 2)), ((0, 1), (0, 2)), ((0, 2), (0, 1)), ((0, 1), (1, 1)), ((1, 1), (0, 1)), ((0, 3), (1, 3)), ((1, 3), (0, 3)), ((2, 0), (2, 1)), ((2, 1), (2, 0)), ((2, 3), (3, 3)), ((3, 3), (2, 3)), ((1, 3), (2, 3)), ((2, 3), (1, 3)), ((1, 0), (2, 0)), ((2, 0), (1, 0)), ((2, 2), (2, 3)), ((2, 3), (2, 2)), ((0, 0), (0, 1)), ((0, 1), (0, 0)), ((1, 2), (1, 3)), ((1, 3), (1, 2)), ((2, 2), (3, 2)), ((3, 2), (2, 2)), ((0, 0), (1, 0)), ((1, 0), (0, 0)), ((1, 1), (2, 1)), ((2, 1), (1, 1)), ((3, 0), (3, 1)), ((3, 1), (3, 0)), ((3, 1), (3, 2)), ((3, 2), (3, 1))]",7,2,2.0185
MP01,2,3,"(2, 3)","(1, 0)",16,1,1,"[((0, 1), (0, 2)), ((0, 2), (0, 1)), ((2, 0), (2, 1)), ((2, 1), (2, 0)), ((0, 2), (1, 2)), ((1, 2), (0, 2)), ((0, 3), (1, 3)), ((1, 3), (0, 3)), ((2, 3), (3, 3)), ((3, 3), (2, 3)), ((1, 2), (2, 2)), ((2, 2), (1, 2)), ((3, 0), (3, 1)), ((3, 1), (3, 0)), ((2, 2), (3, 2)), ((3, 2), (2, 2)), ((2, 1), (3, 1)), ((3, 1), (2, 1)), ((1, 0), (1, 1)), ((1, 1), (1, 0)), ((1, 3), (2, 3)), ((2, 3), (1, 3)), ((0, 1), (1, 1)), ((1, 1), (0, 1)), ((2, 2), (2, 3)), ((2, 3), (2, 2)), ((2, 1), (2, 2)), ((2, 2), (2, 1)), ((0, 0), (0, 1)), ((0, 1), (0, 0)), ((3, 1), (3, 2)), ((3, 2), (3, 1))]",3,1,0.9534
MP01,2,4,"(1, 3)","(2, 0)",17,2,1,"[((2, 1), (3, 1)), ((3, 1), (2, 1)), ((0, 0), (0, 1)), ((0, 1), (0, 0)), ((1, 0), (2, 0)), ((2, 0), (1, 0)), ((1, 1), (1, 2)), ((1, 2), (1, 1)), ((0, 0), (1, 0)), ((1, 0), (0, 0)), ((2, 2), (2, 3)), ((2, 3), (2, 2)), ((1, 1), (2, 1)), ((2, 1), (1, 1)), ((0, 2), (0, 3)), ((0, 3), (0, 2)), ((1, 0), (1, 1)), ((1, 1), (1, 0)), ((0, 2), (1, 2)), ((1, 2), (0, 2)), ((1, 2), (1, 3)), ((1, 3), (1, 2)), ((3, 0), (3, 1)), ((3, 1), (3, 0)), ((3, 1), (3, 2)), ((3, 2), (3, 1)), ((3, 2), (3, 3)), ((3, 3), (3, 2)), ((1, 2), (2, 2)), ((2, 2), (1, 2)), ((2, 0), (2, 1)), ((2, 1), (2, 0)), ((2, 2), (3, 2)), ((3, 2), (2, 2))]",4,2,1.1272
MP01,2,5,"(3, 1)","(0, 2)",17,2,1,"[((2, 1), (2, 2)), ((2, 2), (2, 1)), ((0, 1), (0, 2)), ((0, 2), (0, 1)), ((3, 0), (3, 1)), ((3, 1), (3, 0)), ((2, 2), (3, 2)), ((3, 2), (2, 2)), ((2, 0), (3, 0)), ((3, 0), (2, 0)), ((1, 2), (1, 3)), ((1, 3), (1, 2)), ((0, 2), (1, 2)), ((1, 2), (0, 2)), ((0, 0), (0, 1)), ((0, 1), (0, 0)), ((0, 0), (1, 0)), ((1, 0), (0, 0)), ((1, 1), (2, 1)), ((2, 1), (1, 1)), ((2, 1), (3, 1)), ((3, 1), (2, 1)), ((2, 2), (2, 3)), ((2, 3), (2, 2)), ((0, 2), (0, 3)), ((0, 3), (0, 2)), ((1, 1), (1, 2)), ((1, 2), (1, 1)), ((3, 2), (3, 3)), ((3, 3), (3, 2)), ((1, 0), (1, 1)), ((1, 1), (1, 0)), ((0, 1), (1, 1)), ((1, 1), (0, 1))]",5,3,1.4107
MP01,2,6,"(2, 0)","(1, 3)",18,3,1,"[((1, 0), (1, 1)), ((1, 1), (1, 0)), ((3, 0), (3, 1)), ((3, 1), (3, 0)), ((3, 1), (3, 2)), ((3, 2), (3, 1)), ((1, 3), (2, 3)), ((2, 3), (1, 3)), ((0, 1), (1, 1)), ((1, 1), (0, 1)), ((0, 0), (1, 0)), ((1, 0), (0, 0)), ((1, 2), (2, 2)), ((2, 2), (1, 2)), ((0, 1), (0, 2)), ((0, 2), (0, 1)), ((0, 3), (1, 3)), ((1, 3), (0, 3)), ((0, 2), (1, 2)), ((1, 2), (0, 2)), ((0, 0), (0, 1)), ((0, 1), (0, 0)), ((0, 2), (0, 3)), ((0, 3), (0, 2)), ((1, 2), (1, 3)), ((1, 3), (1, 2)), ((2, 1), (2, 2)), ((2, 2), (2, 1)), ((2, 1), (3, 1)), ((3, 1), (2, 1)), ((3, 2), (3, 3)), ((3, 3), (3, 2)), ((2, 3), (3, 3)), ((3, 3), (2, 3)), ((2, 0), (3, 0)), ((3, 0), (2, 0))]",3,3,1.5874
MP01,2,7,"(0, 1)","(3, 2)",16,1,1,"[((3, 1), (3, 2)), ((3, 2), (3, 1)), ((1, 2), (1, 3)), ((1, 3), (1, 2)), ((1, 3), (2, 3)), ((2, 3), (1, 3)), ((0, 2), (0, 3)), ((0, 3), (0, 2)), ((1, 0), (2, 0)), ((2, 0), (1, 0)), ((2, 1), (3, 1)), ((3, 1), (2, 1)), ((2, 2), (2, 3)), ((2, 3), (2, 2)), ((0, 0), (1, 0)), ((1, 0), (0, 0)), ((2, 3), (3, 3)), ((3, 3), (2, 3)), ((3, 0), (3, 1)), ((3, 1), (3, 0)), ((2, 0), (2, 1)), ((2, 1), (2, 0)), ((0, 1), (0, 2)), ((0, 2), (0, 1)), ((0, 1), (1, 1)), ((1, 1), (0, 1)), ((1, 1), (1, 2)), ((1, 2), (1, 1)), ((0, 0), (0, 1)), ((0, 1), (0, 0)), ((2, 2), (3, 2)), ((3, 2), (2, 2))]",2,1,0.9761
MP01,2,8,"(1, 0)","(2, 3)",17,2,1,"[((0, 2), (0, 3)), ((0, 3), (0, 2)), ((1, 1), (1, 2)), ((1, 2), (1, 1)), ((1, 1), (2, 1)), ((2, 1), (1, 1)), ((2, 2), (2, 3)), ((2, 3), (2, 2)), ((1, 0), (1, 1)), ((1, 1), (1, 0)), ((0, 1), (0, 2)), ((0, 2), (0, 1)), ((3, 0), (3, 1)), ((3, 1), (3, 0)), ((0, 0), (1, 0)), ((1, 0), (0, 0)), ((1, 2), (1, 3)), ((1, 3), (1, 2)), ((1, 2), (2, 2)), ((2, 2), (1, 2)), ((3, 1), (3, 2)), ((3, 2), (3, 1)), ((0, 0), (0, 1)), ((0, 1), (0, 0)), ((2, 3), (3, 3)), ((3, 3), (2, 3)), ((0, 2), (1, 2)), ((1, 2), (0, 2)), ((0, 1), (1, 1)), ((1, 1), (0, 1)), ((3, 2), (3, 3)), ((3, 3), (3, 2)), ((2, 0), (2, 1)), ((2, 1), (2, 0))]",4,5,1.5388
MP01,2,9,"(1, 0)","(2, 3)",15,0,1,"[((2, 3), (3, 3)), ((3, 3), (2, 3)), ((0, 0), (0, 1)), ((0, 1), (0, 0)), ((0, 1), (0, 2)), ((0, 2), (0, 1)), ((2, 0), (3, 0)), ((3, 0), (2, 0)), ((1, 1), (1, 2)), ((1, 2), (1, 1)), ((0, 3), (1, 3)), ((1, 3), (0, 3)), ((3, 2), (3, 3)), ((3, 3), (3, 2)), ((2, 1), (3, 1)), ((3, 1), (2, 1)), ((2, 2), (2, 3)), ((2, 3), (2, 2)), ((0, 2), (0, 3)), ((0, 3), (0, 2)), ((1, 0), (1, 1)), ((1, 1), (1, 0)), ((1, 3), (2, 3)), ((2, 3), (1, 3)), ((0, 2), (1, 2)), ((1, 2), (0, 2)), ((1, 0), (2, 0)), ((2, 0), (1, 0)), ((2, 0), (2, 1)), ((2, 1), (2, 0))]",1,1,0.7065
MP01,2,10,"(1, 3)","(2, 0)",18,3,1,"[((2, 2), (2, 3)), ((2, 3), (2, 2)), ((0, 2), (1, 2)), ((1, 2), (0, 2)), ((2, 3), (3, 3)), ((3, 3), (2, 3)), ((0, 0), (1, 0)), ((1, 0), (0, 0)), ((3, 0), (3, 1)), ((3, 1), (3, 0)), ((1, 2), (2, 2)), ((2, 2), (1, 2)), ((3, 2), (3, 3)), ((3, 3), (3, 2)), ((2, 1), (3, 1)), ((3, 1), (2, 1)), ((1, 0), (1, 1)), ((1, 1), (1, 0)), ((2, 0), (3, 0)), ((3, 0), (2, 0)), ((1, 1), (2, 1)), ((2, 1), (1, 1)), ((2, 1), (2, 2)), ((2, 2), (2, 1)), ((0, 1), (1, 1)), ((1, 1), (0, 1)), ((3, 1), (3, 2)), ((3, 2), (3, 1)), ((0, 1), (0, 2)), ((0, 2), (0, 1)), ((1, 3), (2, 3)), ((2, 3), (1, 3)), ((0, 2), (0, 3)), ((0, 3), (0, 2)), ((1, 0), (2, 0)), ((2, 0), (1, 0))]",7,2,1.2232
MP01,2,11,"(2, 0)","(1, 3)",17,2,1,"[((0, 2), (1, 2)), ((1, 2), (0, 2)), ((3, 0), (3, 1)), ((3, 1), (3, 0)), ((2, 2), (3, 2)), ((3, 2), (2, 2)), ((0, 1), (0, 2)), ((0, 2), (0, 1)), ((1, 1), (1, 2)), ((1, 2), (1, 1)), ((1, 0), (1, 1)), ((1, 1), (1, 0)), ((1, 0), (2, 0)), ((2, 0), (1, 0)), ((2, 1), (3, 1)), ((3, 1), (2, 1)), ((1, 2), (1, 3)), ((1, 3), (1, 2)), ((0, 1), (1, 1)), ((1, 1), (0, 1)), ((0, 0), (0, 1)), ((0, 1), (0, 0)), ((2, 3), (3, 3)), ((3, 3), (2, 3)), ((3, 1), (3, 2)), ((3, 2), (3, 1)), ((2, 0), (2, 1)), ((2, 1), (2, 0)), ((2, 0), (3, 0)), ((3, 0), (2, 0)), ((0, 3), (1, 3)), ((1, 3), (0, 3)), ((2, 2), (2, 3)), ((2, 3), (2, 2))]",6,1,1.2048
MP01,2,12,"(0, 2)","(3, 1)",18,3,1,"[((1, 2), (1, 3)), ((1, 3), (1, 2)), ((2, 1), (3, 1)), ((3, 1), (2, 1)), ((2, 0), (2, 1)), ((2, 1), (2, 0)), ((1, 1), (1, 2)), ((1, 2), (1, 1)), ((1, 1), (2, 1)), ((2, 1), (1, 1)), ((0, 2), (1, 2)), ((1, 2), (0, 2)), ((2, 1), (2, 2)), ((2, 2), (2, 1)), ((3, 0), (3, 1)), ((3, 1), (3, 0)), ((0, 1), (1, 1)), ((1, 1), (0, 1)), ((0, 0), (1, 0)), ((1, 0), (0, 0)), ((0, 2), (0, 3)), ((0, 3), (0, 2)), ((2, 3), (3, 3)), ((3, 3), (2, 3)), ((0, 0), (0, 1)), ((0, 1), (0, 0)), ((3, 2), (3, 3)), ((3, 3), (3, 2)), ((2, 0), (3, 0)), ((3, 0), (2, 0)), ((1, 3), (2, 3)), ((2, 3), (1, 3)), ((3, 1), (3, 2)), ((3, 2), (3, 1)), ((1, 0), (1, 1)), ((1, 1), (1, 0))]",7,2,1.9725
MP01,2,13,"(2, 3)","(1, 0)",17,2,1,"[((2, 1), (3, 1)), ((3, 1), (2, 1)), ((3, 1), (3, 2)), ((3, 2), (3, 1)), ((0, 2), (0, 3)), ((0, 3), (0, 2)), ((1, 3), (2, 3)), ((2, 3), (1, 3)), ((2, 2), (3, 2)), ((3, 2), (2, 2)), ((2, 0), (3, 0)), ((3, 0), (2, 0)), ((0, 0), (1, 0)), ((1, 0), (0, 0)), ((0, 2), (1, 2)), ((1, 2), (0, 2)), ((3, 2), (3, 3)), ((3, 3), (3, 2)), ((1, 1), (2, 1)), ((2, 1), (1, 1)), ((1, 2), (2, 2)), ((2, 2), (1, 2)), ((0, 1), (0, 2)), ((0, 2), (0, 1)), ((1, 0), (2, 0)), ((2, 0), (1, 0)), ((2, 1), (2, 2)), ((2, 2), (2, 1)), ((0, 3), (1, 3)), ((1, 3), (0, 3)), ((0, 1), (1, 1)), ((1, 1), (0, 1)), ((1, 0), (1, 1)), ((1, 1), (1, 0))]",3,6,1.8911
MP01,2,14,"(0, 2)","(3, 1)",18,3,1,"[((1, 3), (2, 3)), ((2, 3), (1, 3)), ((0, 2), (1, 2)), ((1, 2), (0, 2)), ((2, 2), (2, 3)), ((2, 3), (2, 2)), ((3, 2), (3, 3)), ((3, 3), (3, 2)), ((0, 0), (0, 1)), ((0, 1), (0, 0)), ((1, 0), (2, 0)), ((2, 0), (1, 0)), ((2, 3), (3, 3)), ((3, 3), (2, 3)), ((0, 3), (1, 3)), ((1, 3), (0, 3)), ((1, 1), (2, 1)), ((2, 1), (1, 1)), ((2, 1), (3, 1)), ((3, 1), (2, 1)), ((2, 0), (2, 1)), ((2, 1), (2, 0)), ((1, 0), (1, 1)), ((1, 1), (1, 0)), ((3, 1), (3, 2)), ((3, 2), (3, 1)), ((2, 0), (3, 0)), ((3, 0), (2, 0)), ((0, 0), (1, 0)), ((1, 0), (0, 0)), ((0, 1), (1, 1)), ((1, 1), (0, 1)), ((3, 0), (3, 1)), ((3, 1), (3, 0)), ((0, 2), (0, 3)), ((0, 3), (0, 2))]",1,1,0.9047
MP01,2,15,"(0, 2)","(3, 1)",16,1,1,"[((0, 2), (0, 3)), ((0, 3), (0, 2)), ((1, 1), (2, 1)), ((2, 1), (1, 1)), ((3, 0), (3, 1)), ((3, 1), (3, 0)), ((2, 1), (3, 1)), ((3, 1), (2, 1)), ((0, 1), (0, 2)), ((0, 2), (0, 1)), ((2, 2), (3, 2)), ((3, 2), (2, 2)), ((0, 3), (1, 3)), ((1, 3), (0, 3)), ((2, 3), (3, 3)), ((3, 3), (2, 3)), ((1, 1), (1, 2)), ((1, 2), (1, 1)), ((0, 0), (0, 1)), ((0, 1), (0, 0)), ((0, 2), (1, 2)), ((1, 2), (0, 2)), ((0, 0), (1, 0)), ((1, 0), (0, 0)), ((3, 2), (3, 3)), ((3, 3), (3, 2)), ((3, 1), (3, 2)), ((3, 2), (3, 1)), ((2, 2), (2, 3)), ((2, 3), (2, 2)), ((1, 0), (2, 0)), ((2, 0), (1, 0))]",1,1,1.3375
MP01,2,16,"(2, 0)","(1, 3)",17,2,1,"[((3, 2), (3, 3)), ((3, 3), (3, 2)), ((1, 2), (2, 2)), ((2, 2), (1, 2)), ((1, 0), (2, 0)), ((2, 0), (1, 0)), ((1, 3), (2, 3)), ((2, 3), (1, 3)), ((2, 2), (2, 3)), ((2, 3), (2, 2)), ((2, 2), (3, 2)), ((3, 2), (2, 2)), ((1, 2), (1, 3)), ((1, 3), (1, 2)), ((0, 2), (0, 3)), ((0, 3), (0, 2)), ((2, 3), (3, 3)), ((3, 3), (2, 3)), ((0, 3), (1, 3)), ((1, 3), (0, 3)), ((0, 0), (1, 0)), ((1, 0), (0, 0)), ((0, 1), (0, 2)), ((0, 2), (0, 1)), ((2, 0), (2, 1)), ((2, 1), (2, 0)), ((2, 0), (3, 0)), ((3, 0), (2, 0)), ((2, 1), (2, 2)), ((2, 2), (2, 1)), ((1, 1), (2, 1)), ((2, 1), (1, 1)), ((2, 1), (3, 1)), ((3, 1), (2, 1))]",5,3,1.1732
MP01,2,17,"(0, 2)","(3, 1)",17,2,1,"[((2, 1), (3, 1)), ((3, 1), (2, 1)), ((0, 2), (0, 3)), ((0, 3), (0, 2)), ((1, 2), (1, 3)), ((1, 3), (1, 2)), ((2, 2), (2, 3)), ((2, 3), (2, 2)), ((0, 3), (1, 3)), ((1, 3), (0, 3)), ((0, 0), (1, 0)), ((1, 0), (0, 0)), ((2, 0), (2, 1)), ((2, 1), (2, 0)), ((3, 2), (3, 3)), ((3, 3), (3, 2)), ((2, 1), (2, 2)), ((2, 2), (2, 1)), ((2, 2), (3, 2)), ((3, 2), (2, 2)), ((1, 1), (1, 2)), ((1, 2), (1, 1)), ((3, 0), (3, 1)), ((3, 1), (3, 0)), ((1, 2), (2, 2)), ((2, 2), (1, 2)), ((1, 3), (2, 3)), ((2, 3), (1, 3)), ((1, 0), (2, 0)), ((2, 0), (1, 0)), ((0, 1), (1, 1)), ((1, 1), (0, 1)), ((0, 2), (1, 2)), ((1, 2), (0, 2))]",4,2,1.939
MP01,2,18,"(3, 2)","(0, 1)",17,2,1,"[((0, 1), (1, 1)), ((1, 1), (0, 1)), ((2, 3), (3, 3)), ((3, 3), (2, 3)), ((0, 0), (1, 0)), ((1, 0), (0, 0)), ((2, 2), (3, 2)), ((3, 2), (2, 2)), ((1, 1), (2, 1)), ((2, 1), (1, 1)), ((0, 0), (0, 1)), ((0, 1), (0, 0)), ((3, 2), (3, 3)), ((3, 3), (3, 2)), ((3, 1), (3, 2)), ((3, 2), (3, 1)), ((2, 0), (2, 1)), ((2, 1), (2, 0)), ((3, 0), (3, 1)), ((3, 1), (3, 0)), ((1, 0), (2, 0)), ((2, 0), (1, 0)), ((0, 3), (1, 3)), ((1, 3), (0, 3)), ((0, 2), (0, 3)), ((0, 3), (0, 2)), ((1, 0), (1, 1)), ((1, 1), (1, 0)), ((2, 1), (2, 2)), ((2, 2), (2, 1)), ((1, 2), (1, 3)), ((1, 3), (1, 2)), ((1, 1), (1, 2)), ((1, 2), (1, 1))]",4,3,2.3546
MP01,2,19,"(0, 1)","(3, 2)",17,2,1,"[((2, 2), (3, 2)), ((3, 2), (2, 2)), ((3, 1), (3, 2)), ((3, 2), (3, 1)), ((2, 1), (2, 2)), ((2, 2), (2, 1)), ((3, 2), (3, 3)), ((3, 3), (3, 2)), ((0, 2), (1, 2)), ((1, 2), (0, 2)), ((0, 0), (1, 0)), ((1, 0), (0, 0)), ((0, 1), (0, 2)), ((0, 2), (0, 1)), ((2, 0), (2, 1)), ((2, 1), (2, 0)), ((2, 2), (2, 3)), ((2, 3), (2, 2)), ((0, 0), (0, 1)), ((0, 1), (0, 0)), ((1, 3), (2, 3)), ((2, 3), (1, 3)), ((2, 1), (3, 1)), ((3, 1), (2, 1)), ((1, 2), (2, 2)), ((2, 2), (1, 2)), ((0, 3), (1, 3)), ((1, 3), (0, 3)), ((1, 0), (1, 1)), ((1, 1), (1, 0)), ((0, 2), (0, 3)), ((0, 3), (0, 2)), ((3, 0), (3, 1)), ((3, 1), (3, 0))]",4,4,2.9571
MP01,2,20,"(0, 2)","(3, 1)",17,2,1,"[((2, 2), (2, 3)), ((2, 3), (2, 2)), ((1, 0), (2, 0)), ((2, 0), (1, 0)), ((0, 1), (1, 1)), ((1, 1), (0, 1)), ((1, 2), (1, 3)), ((1, 3), (1, 2)), ((3, 1), (3, 2)), ((3, 2), (3, 1)), ((2, 2), (3, 2)), ((3, 2), (2, 2)), ((3, 2), (3, 3)), ((3, 3), (3, 2)), ((2, 0), (2, 1)), ((2, 1), (2, 0)), ((2, 0), (3, 0)), ((3, 0), (2, 0)), ((0, 0), (0, 1)), ((0, 1), (0, 0)), ((0, 0), (1, 0)), ((1, 0), (0, 0)), ((1, 1), (2, 1)), ((2, 1), (1, 1)), ((2, 1), (2, 2)), ((2, 2), (2, 1)), ((0, 2), (0, 3)), ((0, 3), (0, 2)), ((0, 2), (1, 2)), ((1, 2), (0, 2)), ((1, 0), (1, 1)), ((1, 1), (1, 0)), ((1, 3), (2, 3)), ((2, 3), (1, 3))]",1,1,2.3133
MP01,2,21,"(2, 0)","(1, 3)",17,2,1,"[((1, 2), (2, 2)), ((2, 2), (1, 2)), ((2, 0), (2, 1)), ((2, 1), (2, 0)), ((3, 0), (3, 1)), ((3, 1), (3, 0)), ((1, 1), (2, 1)), ((2, 1), (1, 1)), ((2, 1), (2, 2)), ((2, 2), (2, 1)), ((0, 1), (0, 2)), ((0, 2), (0, 1)), ((0, 3), (1, 3)), ((1, 3), (0, 3)), ((0, 0), (1, 0)), ((1, 0), (0, 0)), ((2, 2), (3, 2)), ((3, 2), (2, 2)), ((1, 2), (1, 3)), ((1, 3), (1, 2)), ((2, 0), (3, 0)), ((3, 0), (2, 0)), ((2, 3), (3, 3)), ((3, 3), (2, 3)), ((2, 2), (2, 3)), ((2, 3), (2, 2)), ((1, 0), (2, 0)), ((2, 0), (1, 0)), ((1, 0), (1, 1)), ((1, 1), (1, 0)), ((0, 2), (1, 2)), ((1, 2), (0, 2)), ((3, 1), (3, 2)), ((3, 2), (3, 1))]",5,2,1.4923
MP01,2,22,"(2, 3)","(1, 0)",17,2,1,"[((1, 2), (1, 3)), ((1, 3), (1, 2)), ((1, 3), (2, 3)), ((2, 3), (1, 3)), ((3, 1), (3, 2)), ((3, 2), (3, 1)), ((0, 1), (0, 2)), ((0, 2), (0, 1)), ((0, 3), (1, 3)), ((1, 3), (0, 3)), ((2, 3), (3, 3)), ((3, 3), (2, 3)), ((1, 1), (2, 1)), ((2, 1), (1, 1)), ((2, 1), (2, 2)), ((2, 2), (2, 1)), ((0, 0), (0, 1)), ((0, 1), (0, 0)), ((3, 2), (3, 3)), ((3, 3), (3, 2)), ((3, 0), (3, 1)), ((3, 1), (3, 0)), ((0, 2), (0, 3)), ((0, 3), (0, 2)), ((0, 1), (1, 1)), ((1, 1), (0, 1)), ((2, 2), (3, 2)), ((3, 2), (2, 2)), ((2, 0), (3, 0)), ((3, 0), (2, 0)), ((2, 1), (3, 1)), ((3, 1), (2, 1)), ((1, 0), (1, 1)), ((1, 1), (1, 0))]",3,3,1.7013
MP01,2,23,"(3, 2)","(0, 1)",17,2,1,"[((1, 1), (1, 2)), ((1, 2), (1, 1)), ((0, 2), (1, 2)), ((1, 2), (0, 2)), ((2, 0), (3, 0)), ((3, 0), (2, 0)), ((2, 2), (3, 2)), ((3, 2), (2, 2)), ((1, 3), (2, 3)), ((2, 3), (1, 3)), ((0, 1), (0, 2)), ((0, 2), (0, 1)), ((1, 0), (2, 0)), ((2, 0), (1, 0)), ((2, 2), (2, 3)), ((2, 3), (2, 2)), ((1, 2), (1, 3)), ((1, 3), (1, 2)), ((0, 2), (0, 3)), ((0, 3), (0, 2)), ((0, 0), (0, 1)), ((0, 1), (0, 0)), ((2, 1), (3, 1)), ((3, 1), (2, 1)), ((1, 0), (1, 1)), ((1, 1), (1, 0)), ((3, 2), (3, 3)), ((3, 3), (3, 2)), ((2, 0), (2, 1)), ((2, 1), (2, 0)), ((1, 1), (2, 1)), ((2, 1), (1, 1)), ((0, 0), (1, 0)), ((1, 0), (0, 0))]",3,2,2.4084
MP01,2,24,"(0, 1)","(3, 2)",18,3,1,"[((3, 2), (3, 3)), ((3, 3), (3, 2)), ((1, 1), (2, 1)), ((2, 1), (1, 1)), ((2, 2), (3, 2)), ((3, 2), (2, 2)), ((1, 0), (2, 0)), ((2, 0), (1, 0)), ((1, 3), (2, 3)), ((2, 3), (1, 3)), ((0, 3), (1, 3)), ((1, 3), (0, 3)), ((2, 0), (3, 0)), ((3, 0), (2, 0)), ((2, 1), (3, 1)), ((3, 1), (2, 1)), ((3, 1), (3, 2)), ((3, 2), (3, 1)), ((0, 0), (1, 0)), ((1, 0), (0, 0)), ((0, 0), (0, 1)), ((0, 1), (0, 0)), ((3, 0), (3, 1)), ((3, 1), (3, 0)), ((0, 1), (0, 2)), ((0, 2), (0, 1)), ((0, 2), (1, 2)), ((1, 2), (0, 2)), ((2, 2), (2, 3)), ((2, 3), (2, 2)), ((1, 2), (1, 3)), ((1, 3), (1, 2)), ((2, 3), (3, 3)), ((3, 3), (2, 3)), ((2, 1), (2, 2)), ((2, 2), (2, 1))]",6,3,1.408
MP01,2,25,"(2, 3)","(1, 0)",17,2,1,"[((1, 2), (1, 3)), ((1, 3), (1, 2)), ((2, 0), (3, 0)), ((3, 0), (2, 0)), ((3, 0), (3, 1)), ((3, 1), (3, 0)), ((3, 2), (3, 3)), ((3, 3), (3, 2)), ((0, 2), (0, 3)), ((0, 3), (0, 2)), ((0, 0), (1, 0)), ((1, 0), (0, 0)), ((2, 2), (3, 2)), ((3, 2), (2, 2)), ((1, 0), (2, 0)), ((2, 0), (1, 0)), ((0, 3), (1, 3)), ((1, 3), (0, 3)), ((1, 3), (2, 3)), ((2, 3), (1, 3)), ((1, 1), (1, 2)), ((1, 2), (1, 1)), ((1, 0), (1, 1)), ((1, 1), (1, 0)), ((2, 1), (3, 1)), ((3, 1), (2, 1)), ((2, 3), (3, 3)), ((3, 3), (2, 3)), ((0, 1), (1, 1)), ((1, 1), (0, 1)), ((1, 2), (2, 2)), ((2, 2), (1, 2)), ((2, 2), (2, 3)), ((2, 3), (2, 2))]",5,2,0.7564
MP01,2,26,"(0, 1)","(3, 2)",17,2,1,"[((0, 2), (1, 2)), ((1, 2), (0, 2)), ((2, 0), (2, 1)), ((2, 1), (2, 0)), ((1, 1), (1, 2)), ((1, 2), (1, 1)), ((0, 0), (0, 1)), ((0, 1), (0, 0)), ((2, 0), (3, 0)), ((3, 0), (2, 0)), ((1, 2), (2, 2)), ((2, 2), (1, 2)), ((3, 0), (3, 1)), ((3, 1), (3, 0)), ((2, 2), (3, 2)), ((3, 2), (2, 2)), ((1, 2), (1, 3)), ((1, 3), (1, 2)), ((3, 2), (3, 3)), ((3, 3), (3, 2)), ((3, 1), (3, 2)), ((3, 2), (3, 1)), ((2, 3), (3, 3)), ((3, 3), (2, 3)), ((1, 0), (2, 0)), ((2, 0), (1, 0)), ((1, 3), (2, 3)), ((2, 3), (1, 3)), ((1, 1), (2, 1)), ((2, 1), (1, 1)), ((0, 2), (0, 3)), ((0, 3), (0, 2)), ((0, 1), (1, 1)), ((1, 1), (0, 1))]",3,3,1.6416
MP01,2,27,"(0, 2)","(3, 1)",15,0,1,"[((2, 2), (2, 3)), ((2, 3), (2, 2)), ((2, 1), (2, 2)), ((2, 2), (2, 1)), ((3, 0), (3, 1)), ((3, 1), (3, 0)), ((1, 1), (1, 2)), ((1, 2), (1, 1)), ((1, 2), (2, 2)), ((2, 2), (1, 2)), ((2, 1), (3, 1)), ((3, 1), (2, 1)), ((0, 1), (1, 1)), ((1, 1), (0, 1)), ((2, 2), (3, 2)), ((3, 2), (2, 2)), ((0, 1), (0, 2)), ((0, 2), (0, 1)), ((0, 3), (1, 3)), ((1, 3), (0, 3)), ((1, 3), (2, 3)), ((2, 3), (1, 3)), ((1, 0), (1, 1)), ((1, 1), (1, 0)), ((1, 0), (2, 0)), ((2, 0), (1, 0)), ((0, 0), (1, 0)), ((1, 0), (0, 0)), ((2, 3), (3, 3)), ((3, 3), (2, 3))]",1,1,2.1411
MP01,2,28,"(1, 0)","(2, 3)",19,4,1,"[((0, 0), (0, 1)), ((0, 1), (0, 0)), ((2, 0), (2, 1)), ((2, 1), (2, 0)), ((2, 2), (3, 2)), ((3, 2), (2, 2)), ((2, 1), (3, 1)), ((3, 1), (2, 1)), ((2, 3), (3, 3)), ((3, 3), (2, 3)), ((0, 3), (1, 3)), ((1, 3), (0, 3)), ((3, 1), (3, 2)), ((3, 2), (3, 1)), ((0, 1), (1, 1)), ((1, 1), (0, 1)), ((0, 2), (1, 2)), ((1, 2), (0, 2)), ((1, 1), (1, 2)), ((1, 2), (1, 1)), ((0, 2), (0, 3)), ((0, 3), (0, 2)), ((0, 0), (1, 0)), ((1, 0), (0, 0)), ((1, 3), (2, 3)), ((2, 3), (1, 3)), ((2, 0), (3, 0)), ((3, 0), (2, 0)), ((2, 1), (2, 2)), ((2, 2), (2, 1)), ((2, 2), (2, 3)), ((2, 3), (2, 2)), ((0, 1), (0, 2)), ((0, 2), (0, 1)), ((1, 2), (1, 3)), ((1, 3), (1, 2)), ((1, 0), (2, 0)), ((2, 0), (1, 0))]",6,3,1.0316
MP01,2,29,"(1, 3)","(2, 0)",17,2,1,"[((0, 0), (0, 1)), ((0, 1), (0, 0)), ((0, 1), (1, 1)), ((1, 1), (0, 1)), ((0, 2), (1, 2)), ((1, 2), (0, 2)), ((2, 0), (2, 1)), ((2, 1), (2, 0)), ((0, 2), (0, 3)), ((0, 3), (0, 2)), ((0, 1), (0, 2)), ((0, 2), (0, 1)), ((0, 0), (1, 0)), ((1, 0), (0, 0)), ((1, 1), (2, 1)), ((2, 1), (1, 1)), ((2, 2), (3, 2)), ((3, 2), (2, 2)), ((1, 2), (2, 2)), ((2, 2), (1, 2)), ((2, 2), (2, 3)), ((2, 3), (2, 2)), ((3, 1), (3, 2)), ((3, 2), (3, 1)), ((1, 1), (1, 2)), ((1, 2), (1, 1)), ((0, 3), (1, 3)), ((1, 3), (0, 3)), ((3, 0), (3, 1)), ((3, 1), (3, 0)), ((1, 0), (2, 0)), ((2, 0), (1, 0)), ((2, 3), (3, 3)), ((3, 3), (2, 3))]",4,3,1.1241
MP01,2,30,"(0, 2)","(3, 1)",16,1,1,"[((2, 3), (3, 3)), ((3, 3), (2, 3)), ((0, 3), (1, 3)), ((1, 3), (0, 3)), ((1, 3), (2, 3)), ((2, 3), (1, 3)), ((1, 2), (1, 3)), ((1, 3), (1, 2)), ((0, 0), (1, 0)), ((1, 0), (0, 0)), ((2, 0), (2, 1)), ((2, 1), (2, 0)), ((2, 0), (3, 0)), ((3, 0), (2, 0)), ((2, 2), (3, 2)), ((3, 2), (2, 2)), ((3, 0), (3, 1)), ((3, 1), (3, 0)), ((2, 1), (2, 2)), ((2, 2), (2, 1)), ((1, 1), (1, 2)), ((1, 2), (1, 1)), ((0, 1), (1, 1)), ((1, 1), (0, 1)), ((3, 1), (3, 2)), ((3, 2), (3, 1)), ((0, 2), (1, 2)), ((1, 2), (0, 2)), ((1, 0), (2, 0)), ((2, 0), (1, 0)), ((0, 0), (0, 1)), ((0, 1), (0, 0))]",2,2,1.4566
MP01,2,31,"(2, 3)","(1, 0)",15,0,1,"[((0, 1), (0, 2)), ((0, 2), (0, 1)), ((0, 3), (1, 3)), ((1, 3), (0, 3)), ((3, 1), (3, 2)), ((3, 2), (3, 1)), ((2, 2), (3, 2)), ((3, 2), (2, 2)), ((1, 2), (1, 3)), ((1, 3), (1, 2)), ((0, 0), (0, 1)), ((0, 1), (0, 0)), ((1, 2), (2, 2)), ((2, 2), (1, 2)), ((1, 1), (2, 1)), ((2, 1), (1, 1)), ((2, 3), (3, 3)), ((3, 3), (2, 3)), ((1, 0), (1, 1)), ((1, 1), (1, 0)), ((2, 2), (2, 3)), ((2, 3), (2, 2)), ((1, 1), (1, 2)), ((1, 2), (1, 1)), ((3, 0), (3, 1)), ((3, 1), (3, 0)), ((0, 2), (1, 2)), ((1, 2), (0, 2)), ((2, 0), (2, 1)), ((2, 1), (2, 0))]",1,3,2.8075
MP01,2,32,"(0, 1)","(3, 2)",18,3,1,"[((2, 3), (3, 3)), ((3, 3), (2, 3)), ((2, 1), (3, 1)), ((3, 1), (2, 1)), ((1, 1), (2, 1)), ((2, 1), (1, 1)), ((2, 0), (3, 0)), ((3, 0), (2, 0)), ((3, 0), (3, 1)), ((3, 1), (3, 0)), ((1, 2), (2, 2)), ((2, 2), (1, 2)), ((2, 2), (2, 3)), ((2, 3), (2, 2)), ((1, 2), (1, 3)), ((1, 3), (1, 2)), ((1, 1), (1, 2)), ((1, 2), (1, 1)), ((2, 1), (2, 2)), ((2, 2), (2, 1)), ((0, 0), (0, 1)), ((0, 1), (0, 0)), ((0, 2), (1, 2)), ((1, 2), (0, 2)), ((1, 0), (2, 0)), ((2, 0), (1, 0)), ((0, 1), (0, 2)), ((0, 2), (0, 1)), ((1, 0), (1, 1)), ((1, 1), (1, 0)), ((2, 2), (3, 2)), ((3, 2), (2, 2)), ((0, 2), (0, 3)), ((0, 3), (0, 2)), ((3, 1), (3, 2)), ((3, 2), (3, 1))]",7,5,2.5592
MP01,2,33,"(3, 1)","(0, 2)",16,1,1,"[((0, 3), (1, 3)), ((1, 3), (0, 3)), ((0, 0), (0, 1)), ((0, 1), (0, 0)), ((0, 1), (1, 1)), ((1, 1), (0, 1)), ((0, 2), (1, 2)), ((1, 2), (0, 2)), ((1, 1), (1, 2)), ((1, 2), (1, 1)), ((3, 2), (3, 3)), ((3, 3), (3, 2)), ((1, 0), (1, 1)), ((1, 1), (1, 0)), ((1, 1), (2, 1)), ((2, 1), (1, 1)), ((2, 2), (3, 2)), ((3, 2), (2, 2)), ((2, 0), (2, 1)), ((2, 1), (2, 0)), ((2, 2), (2, 3)), ((2, 3), (2, 2)), ((3, 0), (3, 1)), ((3, 1), (3, 0)), ((2, 0), (3, 0)), ((3, 0), (2, 0)), ((1, 2), (1, 3)), ((1, 3), (1, 2)), ((1, 2), (2, 2)), ((2, 2), (1, 2)), ((2, 3), (3, 3)), ((3, 3), (2, 3))]",1,1,1.554
MP01,2,34,"(2, 3)","(1, 0)",19,4,1,"[((0, 0), (0, 1)), ((0, 1), (0, 0)), ((1, 1), (1, 2)), ((1, 2), (1, 1)), ((2, 1), (3, 1)), ((3, 1), (2, 1)), ((3, 2), (3, 3)), ((3, 3), (3, 2)), ((2, 2), (3, 2)), ((3, 2), (2, 2)), ((1, 2), (1, 3)), ((1, 3), (1, 2)), ((1, 2), (2, 2)), ((2, 2), (1, 2)), ((0, 1), (0, 2)), ((0, 2), (0, 1)), ((2, 0), (3, 0)), ((3, 0), (2, 0)), ((2, 3), (3, 3)), ((3, 3), (2, 3)), ((2, 0), (2, 1)), ((2, 1), (2, 0)), ((0, 2), (1, 2)), ((1, 2), (0, 2)), ((2, 1), (2, 2)), ((2, 2), (2, 1)), ((0, 3), (1, 3)), ((1, 3), (0, 3)), ((1, 0), (2, 0)), ((2, 0), (1, 0)), ((3, 0), (3, 1)), ((3, 1), (3, 0)), ((0, 2), (0, 3)), ((0, 3), (0, 2)), ((0, 1), (1, 1)), ((1, 1), (0, 1)), ((1, 0), (1, 1)), ((1, 1), (1, 0))]",7,3,2.7153
MP01,2,35,"(2, 3)","(1, 0)",16,1,1,"[((1, 1), (1, 2)), ((1, 2), (1, 1)), ((2, 2), (2, 3)), ((2, 3), (2, 2)), ((2, 0), (2, 1)), ((2, 1), (2, 0)), ((2, 3), (3, 3)), ((3, 3), (2, 3)), ((0, 0), (0, 1)), ((0, 1), (0, 0)), ((0, 2), (0, 3)), ((0, 3), (0, 2)), ((1, 0), (2, 0)), ((2, 0), (1, 0)), ((0, 0), (1, 0)), ((1, 0), (0, 0)), ((2, 1), (3, 1)), ((3, 1), (2, 1)), ((1, 2), (1, 3)), ((1, 3), (1, 2)), ((0, 2), (1, 2)), ((1, 2), (0, 2)), ((2, 0), (3, 0)), ((3, 0), (2, 0)), ((1, 0), (1, 1)), ((1, 1), (1, 0)), ((0, 1), (0, 2)), ((0, 2), (0, 1)), ((2, 2), (3, 2)), ((3, 2), (2, 2)), ((3, 1), (3, 2)), ((3, 2), (3, 1))]",1,1,1.2859
MP01,2,36,"(1, 3)","(2, 0)",17,2,1,"[((1, 2), (2, 2)), ((2, 2), (1, 2)), ((1, 0), (2, 0)), ((2, 0), (1, 0)), ((1, 2), (1, 3)), ((1, 3), (1, 2)), ((0, 0), (1, 0)), ((1, 0), (0, 0)), ((0, 2), (0, 3)), ((0, 3), (0, 2)), ((2, 3), (3, 3)), ((3, 3), (2, 3)), ((3, 2), (3, 3)), ((3, 3), (3, 2)), ((0, 2), (1, 2)), ((1, 2), (0, 2)), ((1, 0), (1, 1)), ((1, 1), (1, 0)), ((2, 0), (2, 1)), ((2, 1), (2, 0)), ((2, 1), (3, 1)), ((3, 1), (2, 1)), ((1, 1), (2, 1)), ((2, 1), (1, 1)), ((1, 1), (1, 2)), ((1, 2), (1, 1)), ((1, 3), (2, 3)), ((2, 3), (1, 3)), ((0, 0), (0, 1)), ((0, 1), (0, 0)), ((3, 0), (3, 1)), ((3, 1), (3, 0)), ((0, 1), (1, 1)), ((1, 1), (0, 1))]",5,2,1.2065
MP01,2,37,"(3, 2)","(0, 1)",17,2,1,"[((1, 1), (2, 1)), ((2, 1), (1, 1)), ((2, 2), (2, 3)), ((2, 3), (2, 2)), ((0, 1), (1, 1)), ((1, 1), (0, 1)), ((3, 0), (3, 1)), ((3, 1), (3, 0)), ((1, 2), (2, 2)), ((2, 2), (1, 2)), ((1, 0), (2, 0)), ((2, 0), (1, 0)), ((0, 3), (1, 3)), ((1, 3), (0, 3)), ((3, 2), (3, 3)), ((3, 3), (3, 2)), ((0, 2), (0, 3)), ((0, 3), (0, 2)), ((2, 1), (2, 2)), ((2, 2), (2, 1)), ((0, 0), (0, 1)), ((0, 1), (0, 0)), ((3, 1), (3, 2)), ((3, 2), (3, 1)), ((1, 2), (1, 3)), ((1, 3), (1, 2)), ((2, 3), (3, 3)), ((3, 3), (2, 3)), ((1, 0), (1, 1)), ((1, 1), (1, 0)), ((2, 2), (3, 2)), ((3, 2), (2, 2)), ((0, 2), (1, 2)), ((1, 2), (0, 2))]",2,1,1.0754
MP01,2,38,"(0, 2)","(3, 1)",18,3,1,"[((2, 0), (2, 1)), ((2, 1), (2, 0)), ((0, 3), (1, 3)), ((1, 3), (0, 3)), ((1, 3), (2, 3)), ((2, 3), (1, 3)), ((1, 1), (2, 1)), ((2, 1), (1, 1)), ((1, 0), (1, 1)), ((1, 1), (1, 0)), ((1, 1), (1, 2)), ((1, 2), (1, 1)), ((0, 1), (1, 1)), ((1, 1), (0, 1)), ((2, 2), (3, 2)), ((3, 2), (2, 2)), ((0, 2), (1, 2)), ((1, 2), (0, 2)), ((3, 0), (3, 1)), ((3, 1), (3, 0)), ((2, 1), (3, 1)), ((3, 1), (2, 1)), ((0, 2), (0, 3)), ((0, 3), (0, 2)), ((0, 0), (0, 1)), ((0, 1), (0, 0)), ((0, 0), (1, 0)), ((1, 0), (0, 0)), ((2, 2), (2, 3)), ((2, 3), (2, 2)), ((3, 1), (3, 2)), ((3, 2), (3, 1)), ((2, 3), (3, 3)), ((3, 3), (2, 3)), ((1, 0), (2, 0)), ((2, 0), (1, 0))]",6,4,2.7772
MP01,2,39,"(0, 2)","(3, 1)",16,1,1,"[((2, 3), (3, 3)), ((3, 3), (2, 3)), ((1, 2), (1, 3)), ((1, 3), (1, 2)), ((0, 0), (1, 0)), ((1, 0), (0, 0)), ((2, 2), (2, 3)), ((2, 3), (2, 2)), ((0, 0), (0, 1)), ((0, 1), (0, 0)), ((1, 1), (2, 1)), ((2, 1), (1, 1)), ((2, 1), (2, 2)), ((2, 2), (2, 1)), ((0, 2), (1, 2)), ((1, 2), (0, 2)), ((0, 2), (0, 3)), ((0, 3), (0, 2)), ((2, 0), (2, 1)), ((2, 1), (2, 0)), ((3, 1), (3, 2)), ((3, 2), (3, 1)), ((0, 3), (1, 3)), ((1, 3), (0, 3)), ((2, 0), (3, 0)), ((3, 0), (2, 0)), ((1, 0), (2, 0)), ((2, 0), (1, 0)), ((1, 2), (2, 2)), ((2, 2), (1, 2)), ((2, 1), (3, 1)), ((3, 1), (2, 1))]",2,2,2.0188
MP01,2,40,"(1, 3)","(2, 0)",18,3,1,"[((0, 2), (1, 2)), ((1, 2), (0, 2)), ((2, 0), (2, 1)), ((2, 1), (2, 0)), ((3, 2), (3, 3)), ((3, 3), (3, 2)), ((2, 2), (3, 2)), ((3, 2), (2, 2)), ((2, 1), (3, 1)), ((3, 1), (2, 1)), ((1, 2), (1, 3)), ((1, 3), (1, 2)), ((1, 1), (2, 1)), ((2, 1), (1, 1)), ((0, 0), (1, 0)), ((1, 0), (0, 0)), ((0, 0), (0, 1)), ((0, 1), (0, 0)), ((0, 2), (0, 3)), ((0, 3), (0, 2)), ((3, 0), (3, 1)), ((3, 1), (3, 0)), ((1, 2), (2, 2)), ((2, 2), (1, 2)), ((1, 0), (1, 1)), ((1, 1), (1, 0)), ((0, 3), (1, 3)), ((1, 3), (0, 3)), ((0, 1), (0, 2)), ((0, 2), (0, 1)), ((1, 3), (2, 3)), ((2, 3), (1, 3)), ((1, 0), (2, 0)), ((2, 0), (1, 0)), ((2, 0), (3, 0)), ((3, 0), (2, 0))]",6,1,1.9929
MP01,2,41,"(0, 2)","(3, 1)",17,2,1,"[((2, 0), (2, 1)), ((2, 1), (2, 0)), ((2, 2), (3, 2)), ((3, 2), (2, 2)), ((0, 3), (1, 3)), ((1, 3), (0, 3)), ((1, 1), (1, 2)), ((1, 2), (1, 1)), ((0, 2), (1, 2)), ((1, 2), (0, 2)), ((0, 1), (1, 1)), ((1, 1), (0, 1)), ((1, 0), (1, 1)), ((1, 1), (1, 0)), ((0, 1), (0, 2)), ((0, 2), (0, 1)), ((2, 1), (3, 1)), ((3, 1), (2, 1)), ((0, 2), (0, 3)), ((0, 3), (0, 2)), ((3, 0), (3, 1)), ((3, 1), (3, 0)), ((1, 2), (1, 3)), ((1, 3), (1, 2)), ((1, 2), (2, 2)), ((2, 2), (1, 2)), ((3, 2), (3, 3)), ((3, 3), (3, 2)), ((2, 3), (3, 3)), ((3, 3), (2, 3)), ((0, 0), (1, 0)), ((1, 0), (0, 0)), ((1, 0), (2, 0)), ((2, 0), (1, 0))]",5,2,0.91
MP01,2,42,"(3, 1)","(0, 2)",18,3,1,"[((1, 1), (2, 1)), ((2, 1), (1, 1)), ((3, 1), (3, 2)), ((3, 2), (3, 1)), ((0, 0), (0, 1)), ((0, 1), (0, 0)), ((3, 2), (3, 3)), ((3, 3), (3, 2)), ((2, 0), (3, 0)), ((3, 0), (2, 0)), ((1, 3), (2, 3)), ((2, 3), (1, 3)), ((0, 3), (1, 3)), ((1, 3), (0, 3)), ((2, 1), (2, 2)), ((2, 2), (2, 1)), ((2, 3), (3, 3)), ((3, 3), (2, 3)), ((1, 0), (2, 0)), ((2, 0), (1, 0)), ((0, 2), (0, 3)), ((0, 3), (0, 2)), ((2, 2), (3, 2)), ((3, 2), (2, 2)), ((1, 2), (1, 3)), ((1, 3), (1, 2)), ((1, 1), (1, 2)), ((1, 2), (1, 1)), ((1, 0), (1, 1)), ((1, 1), (1, 0)), ((0, 1), (0, 2)), ((0, 2), (0, 1)), ((1, 2), (2, 2)), ((2, 2), (1, 2)), ((0, 0), (1, 0)), ((1, 0), (0, 0))]",7,2,1.4963
MP01,2,43,"(0, 2)","(3, 1)",17,2,1,"[((1, 0), (1, 1)), ((1, 1), (1, 0)), ((1, 0), (2, 0)), ((2, 0), (1, 0)), ((1, 2), (2, 2)), ((2, 2), (1, 2)), ((0, 1), (1, 1)), ((1, 1), (0, 1)), ((1, 1), (1, 2)), ((1, 2), (1, 1)), ((2, 1), (3, 1)), ((3, 1), (2, 1)), ((2, 3), (3, 3)), ((3, 3), (2, 3)), ((3, 2), (3, 3)), ((3, 3), (3, 2)), ((0, 0), (0, 1)), ((0, 1), (0, 0)), ((2, 0), (2, 1)), ((2, 1), (2, 0)), ((0, 2), (0, 3)), ((0, 3), (0, 2)), ((0, 3), (1, 3)), ((1, 3), (0, 3)), ((2, 0), (3, 0)), ((3, 0), (2, 0)), ((3, 0), (3, 1)), ((3, 1), (3, 0)), ((2, 2), (2, 3)), ((2, 3), (2, 2)), ((3, 1), (3, 2)), ((3, 2), (3, 1)), ((0, 2), (1, 2)), ((1, 2), (0, 2))]",3,2,0.9589
MP01,2,44,"(1, 0)","(2, 3)",17,2,1,"[((0, 3), (1, 3)), ((1, 3), (0, 3)), ((2, 0), (3, 0)), ((3, 0), (2, 0)), ((1, 0), (2, 0)), ((2, 0), (1, 0)), ((0, 1), (0, 2)), ((0, 2), (0, 1)), ((2, 1), (3, 1)), ((3, 1), (2, 1)), ((1, 2), (1, 3)), ((1, 3), (1, 2)), ((3, 2), (3, 3)), ((3, 3), (3, 2)), ((2, 0), (2, 1)), ((2, 1), (2, 0)), ((1, 1), (2, 1)), ((2, 1), (1, 1)), ((1, 1), (1, 2)), ((1, 2), (1, 1)), ((0, 2), (1, 2)), ((1, 2), (0, 2)), ((0, 0), (1, 0)), ((1, 0), (0, 0)), ((1, 2), (2, 2)), ((2, 2), (1, 2)), ((0, 2), (0, 3)), ((0, 3), (0, 2)), ((2, 1), (2, 2)), ((2, 2), (2, 1)), ((2, 2), (2, 3)), ((2, 3), (2, 2)), ((2, 3), (3, 3)), ((3, 3), (2, 3))]",4,1,2.2883
MP01,2,45,"(1, 0)","(2, 3)",18,3,1,"[((3, 0), (3, 1)), ((3, 1), (3, 0)), ((3, 2), (3, 3)), ((3, 3), (3, 2)), ((2, 0), (3, 0)), ((3, 0), (2, 0)), ((3, 1), (3, 2)), ((3, 2), (3, 1)), ((0, 3), (1, 3)), ((1, 3), (0, 3)), ((1, 0), (1, 1)), ((1, 1), (1, 0)), ((0, 2), (1, 2)), ((1, 2), (0, 2)), ((0, 0), (0, 1)), ((0, 1), (0, 0)), ((1, 3), (2, 3)), ((2, 3), (1, 3)), ((2, 3), (3, 3)), ((3, 3), (2, 3)), ((2, 0), (2, 1)), ((2, 1), (2, 0)), ((2, 1), (3, 1)), ((3, 1), (2, 1)), ((1, 2), (1, 3)), ((1, 3), (1, 2)), ((1, 1), (1, 2)), ((1, 2), (1, 1)), ((0, 1), (1, 1)), ((1, 1), (0, 1)), ((1, 2), (2, 2)), ((2, 2), (1, 2)), ((0, 1), (0, 2)), ((0, 2), (0, 1)), ((0, 0), (1, 0)), ((1, 0), (0, 0))]",4,2,1.0543
MP01,2,46,"(2, 3)","(1, 0)",17,2,1,"[((1, 0), (1, 1)), ((1, 1), (1, 0)), ((2, 2), (3, 2)), ((3, 2), (2, 2)), ((2, 1), (3, 1)), ((3, 1), (2, 1)), ((0, 3), (1, 3)), ((1, 3), (0, 3)), ((1, 2), (1, 3)), ((1, 3), (1, 2)), ((1, 0), (2, 0)), ((2, 0), (1, 0)), ((1, 1), (1, 2)), ((1, 2), (1, 1)), ((0, 2), (1, 2)), ((1, 2), (0, 2)), ((3, 2), (3, 3)), ((3, 3), (3, 2)), ((0, 0), (1, 0)), ((1, 0), (0, 0)), ((2, 2), (2, 3)), ((2, 3), (2, 2)), ((0, 2), (0, 3)), ((0, 3), (0, 2)), ((1, 2), (2, 2)), ((2, 2), (1, 2)), ((0, 1), (1, 1)), ((1, 1), (0, 1)), ((2, 0), (2, 1)), ((2, 1), (2, 0)), ((3, 0), (3, 1)), ((3, 1), (3, 0)), ((0, 1), (0, 2)), ((0, 2), (0, 1))]",5,2,2.947
MP01,2,47,"(1, 3)","(2, 0)",16,1,1,"[((3, 2), (3, 3)), ((3, 3), (3, 2)), ((1, 2), (2, 2)), ((2, 2), (1, 2)), ((1, 1), (2, 1)), ((2, 1), (1, 1)), ((0, 2), (1, 2)), ((1, 2), (0, 2)), ((1, 0), (2, 0)), ((2, 0), (1, 0)), ((0, 3), (1, 3)), ((1, 3), (0, 3)), ((1, 1), (1, 2)), ((1, 2), (1, 1)), ((1, 0), (1, 1)), ((1, 1), (1, 0)), ((3, 1), (3, 2)), ((3, 2), (3, 1)), ((0, 0), (0, 1)), ((0, 1), (0, 0)), ((1, 3), (2, 3)), ((2, 3), (1, 3)), ((3, 0), (3, 1)), ((3, 1), (3, 0)), ((2, 2), (2, 3)), ((2, 3), (2, 2)), ((2, 3), (3, 3)), ((3, 3), (2, 3)), ((0, 1), (1, 1)), ((1, 1), (0, 1)), ((0, 0), (1, 0)), ((1, 0), (0, 0))]",2,1,1.7206
MP01,2,48,"(3, 2)","(0, 1)",17,2,1,"[((2, 2), (3, 2)), ((3, 2), (2, 2)), ((1, 1), (1, 2)), ((1, 2), (1, 1)), ((1, 2), (1, 3)), ((1, 3), (1, 2)), ((2, 2), (2, 3)), ((2, 3), (2, 2)), ((0, 2), (1, 2)), ((1, 2), (0, 2)), ((1, 0), (2, 0)), ((2, 0), (1, 0)), ((0, 0), (0, 1)), ((0, 1), (0, 0)), ((3, 2), (3, 3)), ((3, 3), (3, 2)), ((3, 0), (3, 1)), ((3, 1), (3, 0)), ((1, 3), (2, 3)), ((2, 3), (1, 3)), ((0, 0), (1, 0)), ((1, 0), (0, 0)), ((2, 1), (3, 1)), ((3, 1), (2, 1)), ((0, 3), (1, 3)), ((1, 3), (0, 3)), ((0, 2), (0, 3)), ((0, 3), (0, 2)), ((0, 1), (0, 2)), ((0, 2), (0, 1)), ((2, 0), (2, 1)), ((2, 1), (2, 0)), ((2, 0), (3, 0)), ((3, 0), (2, 0))]",2,1,1.5553
MP01,2,49,"(3, 2)","(0, 1)",17,2,1,"[((1, 0), (1, 1)), ((1, 1), (1, 0)), ((1, 0), (2, 0)), ((2, 0), (1, 0)), ((0, 0), (0, 1)), ((0, 1), (0, 0)), ((1, 3), (2, 3)), ((2, 3), (1, 3)), ((1, 2), (1, 3)), ((1, 3), (1, 2)), ((1, 2), (2, 2)), ((2, 2), (1, 2)), ((2, 2), (2, 3)), ((2, 3), (2, 2)), ((0, 1), (0, 2)), ((0, 2), (0, 1)), ((2, 3), (3, 3)), ((3, 3), (2, 3)), ((2, 1), (3, 1)), ((3, 1), (2, 1)), ((0, 2), (0, 3)), ((0, 3), (0, 2)), ((2, 1), (2, 2)), ((2, 2), (2, 1)), ((3, 1), (3, 2)), ((3, 2), (3, 1)), ((3, 0), (3, 1)), ((3, 1), (3, 0)), ((1, 1), (2, 1)), ((2, 1), (1, 1)), ((0, 1), (1, 1)), ((1, 1), (0, 1)), ((1, 1), (1, 2)), ((1, 2), (1, 1))]",3,1,0.9504
MP01,2,50,"(1, 3)","(2, 0)",16,1,1,"[((0, 2), (0, 3)), ((0, 3), (0, 2)), ((0, 1), (1, 1)), ((1, 1), (0, 1)), ((1, 2), (2, 2)), ((2, 2), (1, 2)), ((2, 3), (3, 3)), ((3, 3), (2, 3)), ((2, 1), (2, 2)), ((2, 2), (2, 1)), ((3, 1), (3, 2)), ((3, 2), (3, 1)), ((0, 3), (1, 3)), ((1, 3), (0, 3)), ((0, 0), (1, 0)), ((1, 0), (0, 0)), ((1, 2), (1, 3)), ((1, 3), (1, 2)), ((2, 0), (2, 1)), ((2, 1), (2, 0)), ((1, 0), (1, 1)), ((1, 1), (1, 0)), ((0, 0), (0, 1)), ((0, 1), (0, 0)), ((1, 0), (2, 0)), ((2, 0), (1, 0)), ((1, 3), (2, 3)), ((2, 3), (1, 3)), ((3, 2), (3, 3)), ((3, 3), (3, 2)), ((3, 0), (3, 1)), ((3, 1), (3, 0))]",1,1,1.0042
MP01,2,51,"(3, 2)","(0, 1)",17,2,1,"[((0, 2), (0, 3)), ((0, 3), (0, 2)), ((3, 0), (3, 1)), ((3, 1), (3, 0)), ((3, 2), (3, 3)), ((3, 3), (3, 2)), ((1, 2), (1, 3)), ((1, 3), (1, 2)), ((1, 1), (1, 2)), ((1, 2), (1, 1)), ((0, 1), (1, 1)), ((1, 1), (0, 1)), ((2, 3), (3, 3)), ((3, 3), (2, 3)), ((1, 1), (2, 1)), ((2, 1), (1, 1)), ((2, 2), (2, 3)), ((2, 3), (2, 2)), ((0, 0), (0, 1)), ((0, 1), (0, 0)), ((2, 0), (2, 1)), ((2, 1), (2, 0)), ((2, 1), (2, 2)), ((2, 2), (2, 1)), ((2, 2), (3, 2)), ((3, 2), (2, 2)), ((0, 1), (0, 2)), ((0, 2), (0, 1)), ((0, 3), (1, 3)), ((1, 3), (0, 3)), ((2, 1), (3, 1)), ((3, 1), (2, 1)), ((1, 0), (2, 0)), ((2, 0), (1, 0))]",4,1,1.4924
MP01,2,52,"(1, 3)","(2, 0)",16,1,1,"[((0, 1), (0, 2)), ((0, 2), (0, 1)), ((2, 1), (2, 2)), ((2, 2), (2, 1)), ((2, 1), (3, 1)), ((3, 1), (2, 1)), ((1, 0), (2, 0)), ((2, 0), (1, 0)), ((2, 3), (3, 3)), ((3, 3), (2, 3)), ((0, 3), (1, 3)), ((1, 3), (0, 3)), ((0, 2), (0, 3)), ((0, 3), (0, 2)), ((3, 0), (3, 1)), ((3, 1), (3, 0)), ((1, 3), (2, 3)), ((2, 3), (1, 3)), ((1, 1), (1, 2)), ((1, 2), (1, 1)), ((3, 2), (3, 3)), ((3, 3), (3, 2)), ((1, 2), (1, 3)), ((1, 3), (1, 2)), ((1, 2), (2, 2)), ((2, 2), (1, 2)), ((3, 1), (3, 2)), ((3, 2), (3, 1)), ((2, 0), (3, 0)), ((3, 0), (2, 0)), ((0, 0), (0, 1)), ((0, 1), (0, 0))]",2,2,0.7461
MP01,2,53,"(2, 3)","(1, 0)",16,1,1,"[((2, 0), (3, 0)), ((3, 0), (2, 0)), ((2, 2), (2, 3)), ((2, 3), (2, 2)), ((0, 1), (1, 1)), ((1, 1), (0, 1)), ((2, 1), (2, 2)), ((2, 2), (2, 1)), ((1, 0), (2, 0)), ((2, 0), (1, 0)), ((1, 2), (2, 2)), ((2, 2), (1, 2)), ((2, 0), (2, 1)), ((2, 1), (2, 0)), ((2, 2), (3, 2)), ((3, 2), (2, 2)), ((1, 3), (2, 3)), ((2, 3), (1, 3)), ((0, 0), (1, 0)), ((1, 0), (0, 0)), ((1, 1), (2, 1)), ((2, 1), (1, 1)), ((0, 2), (1, 2)), ((1, 2), (0, 2)), ((2, 3), (3, 3)), ((3, 3), (2, 3)), ((3, 0), (3, 1)), ((3, 1), (3, 0)), ((0, 3), (1, 3)), ((1, 3), (0, 3)), ((3, 2), (3, 3)), ((3, 3), (3, 2))]",2,1,0.5398
MP01,2,54,"(2, 0)","(1, 3)",17,2,1,"[((0, 2), (0, 3)), ((0, 3), (0, 2)), ((1, 1), (2, 1)), ((2, 1), (1, 1)), ((0, 0), (0, 1)), ((0, 1), (0, 0)), ((2, 1), (2, 2)), ((2, 2), (2, 1)), ((2, 2), (2, 3)), ((2, 3), (2, 2)), ((3, 2), (3, 3)), ((3, 3), (3, 2)), ((0, 3), (1, 3)), ((1, 3), (0, 3)), ((0, 2), (1, 2)), ((1, 2), (0, 2)), ((1, 1), (1, 2)), ((1, 2), (1, 1)), ((0, 1), (1, 1)), ((1, 1), (0, 1)), ((2, 1), (3, 1)), ((3, 1), (2, 1)), ((3, 1), (3, 2)), ((3, 2), (3, 1)), ((2, 0), (3, 0)), ((3, 0), (2, 0)), ((0, 1), (0, 2)), ((0, 2), (0, 1)), ((1, 0), (1, 1)), ((1, 1), (1, 0)), ((0, 0), (1, 0)), ((1, 0), (0, 0)), ((3, 0), (3, 1)), ((3, 1), (3, 0))]",5,2,1.0012
MP01,2,55,"(0, 2)","(3, 1)",18,3,1,"[((1, 1), (2, 1)), ((2, 1), (1, 1)), ((3, 1), (3, 2)), ((3, 2), (3, 1)), ((2, 3), (3, 3)), ((3, 3), (2, 3)), ((2, 2), (2, 3)), ((2, 3), (2, 2)), ((3, 0), (3, 1)), ((3, 1), (3, 0)), ((0, 0), (1, 0)), ((1, 0), (0, 0)), ((1, 0), (2, 0)), ((2, 0), (1, 0)), ((1, 0), (1, 1)), ((1, 1), (1, 0)), ((2, 0), (2, 1)), ((2, 1), (2, 0)), ((2, 1), (2, 2)), ((2, 2), (2, 1)), ((1, 2), (2, 2)), ((2, 2), (1, 2)), ((2, 0), (3, 0)), ((3, 0), (2, 0)), ((0, 1), (0, 2)), ((0, 2), (0, 1)), ((0, 2), (0, 3)), ((0, 3), (0, 2)), ((0, 3), (1, 3)), ((1, 3), (0, 3)), ((1, 1), (1, 2)), ((1, 2), (1, 1)), ((0, 0), (0, 1)), ((0, 1), (0, 0)), ((3, 2), (3, 3)), ((3, 3), (3, 2))]",7,1,1.5126
MP01,2,56,"(3, 2)","(0, 1)",18,3,1,"[((3, 1), (3, 2)), ((3, 2), (3, 1)), ((1, 3), (2, 3)), ((2, 3), (1, 3)), ((0, 1), (0, 2)), ((0, 2), (0, 1)), ((0, 0), (1, 0)), ((1, 0), (0, 0)), ((0, 2), (0, 3)), ((0, 3), (0, 2)), ((2, 2), (2, 3)), ((2, 3), (2, 2)), ((3, 0), (3, 1)), ((3, 1), (3, 0)), ((1, 1), (1, 2)), ((1, 2), (1, 1)), ((1, 0), (1, 1)), ((1, 1), (1, 0)), ((2, 0), (2, 1)), ((2, 1), (2, 0)), ((0, 2), (1, 2)), ((1, 2), (0, 2)), ((1, 2), (1, 3)), ((1, 3), (1, 2)), ((1, 0), (2, 0)), ((2, 0), (1, 0)), ((2, 3), (3, 3)), ((3, 3), (2, 3)), ((0, 3), (1, 3)), ((1, 3), (0, 3)), ((2, 2), (3, 2)), ((3, 2), (2, 2)), ((1, 1), (2, 1)), ((2, 1), (1, 1)), ((0, 0), (0, 1)), ((0, 1), (0, 0))]",6,2,0.6875
MP01,2,57,"(3, 1)","(0, 2)",18,3,1,"[((1, 3), (2, 3)), ((2, 3), (1, 3)), ((2, 3), (3, 3)), ((3, 3), (2, 3)), ((0, 1), (1, 1)), ((1, 1), (0, 1)), ((3, 2), (3, 3)), ((3, 3), (3, 2)), ((2, 1), (3, 1)), ((3, 1), (2, 1)), ((0, 1), (0, 2)), ((0, 2), (0, 1)), ((0, 0), (1, 0)), ((1, 0), (0, 0)), ((2, 2), (3, 2)), ((3, 2), (2, 2)), ((1, 2), (2, 2)), ((2, 2), (1, 2)), ((1, 0), (2, 0)), ((2, 0), (1, 0)), ((0, 2), (1, 2)), ((1, 2), (0, 2)), ((2, 0), (2, 1)), ((2, 1), (2, 0)), ((0, 3), (1, 3)), ((1, 3), (0, 3)), ((2, 1), (2, 2)), ((2, 2), (2, 1)), ((3, 1), (3, 2)), ((3, 2), (3, 1)), ((2, 0), (3, 0)), ((3, 0), (2, 0)), ((1, 2), (1, 3)), ((1, 3), (1, 2)), ((1, 0), (1, 1)), ((1, 1), (1, 0))]",7,2,0.6453
MP01,2,58,"(2, 3)","(1, 0)",18,3,1,"[((1, 3), (2, 3)), ((2, 3), (1, 3)), ((3, 1), (3, 2)), ((3, 2), (3, 1)), ((2, 2), (2, 3)), ((2, 3), (2, 2)), ((3, 2), (3, 3)), ((3, 3), (3, 2)), ((0, 2), (1, 2)), ((1, 2), (0, 2)), ((0, 0), (0, 1)), ((0, 1), (0, 0)), ((2, 1), (3, 1)), ((3, 1), (2, 1)), ((1, 0), (2, 0)), ((2, 0), (1, 0)), ((1, 1), (1, 2)), ((1, 2), (1, 1)), ((0, 1), (0, 2)), ((0, 2), (0, 1)), ((2, 0), (3, 0)), ((3, 0), (2, 0)), ((2, 3), (3, 3)), ((3, 3), (2, 3)), ((0, 2), (0, 3)), ((0, 3), (0, 2)), ((1, 2), (1, 3)), ((1, 3), (1, 2)), ((0, 0), (1, 0)), ((1, 0), (0, 0)), ((1, 0), (1, 1)), ((1, 1), (1, 0)), ((2, 0), (2, 1)), ((2, 1), (2, 0)), ((1, 2), (2, 2)), ((2, 2), (1, 2))]",7,2,1.0334
MP01,2,59,"(1, 0)","(2, 3)",18,3,1,"[((2, 0), (3, 0)), ((3, 0), (2, 0)), ((0, 2), (0, 3)), ((0, 3), (0, 2)), ((0, 2), (1, 2)), ((1, 2), (0, 2)), ((1, 3), (2, 3)), ((2, 3), (1, 3)), ((3, 1), (3, 2)), ((3, 2), (3, 1)), ((2, 1), (2, 2)), ((2, 2), (2, 1)), ((3, 0), (3, 1)), ((3, 1), (3, 0)), ((2, 0), (2, 1)), ((2, 1), (2, 0)), ((1, 0), (1, 1)), ((1, 1), (1, 0)), ((0, 3), (1, 3)), ((1, 3), (0, 3)), ((1, 2), (2, 2)), ((2, 2), (1, 2)), ((0, 1), (0, 2)), ((0, 2), (0, 1)), ((1, 1), (1, 2)), ((1, 2), (1, 1)), ((3, 2), (3, 3)), ((3, 3), (3, 2)), ((2, 3), (3, 3)), ((3, 3), (2, 3)), ((0, 0), (1, 0)), ((1, 0), (0, 0)), ((2, 2), (2, 3)), ((2, 3), (2, 2)), ((0, 1), (1, 1)), ((1, 1), (0, 1))]",6,4,1.4033
MP01,2,60,"(2, 0)","(1, 3)",18,3,1,"[((0, 3), (1, 3)), ((1, 3), (0, 3)), ((2, 2), (2, 3)), ((2, 3), (2, 2)), ((0, 2), (1, 2)), ((1, 2), (0, 2)), ((1, 2), (2, 2)), ((2, 2), (1, 2)), ((1, 0), (2, 0)), ((2, 0), (1, 0)), ((3, 1), (3, 2)), ((3, 2), (3, 1)), ((3, 0), (3, 1)), ((3, 1), (3, 0)), ((0, 1), (0, 2)), ((0, 2), (0, 1)), ((3, 2), (3, 3)), ((3, 3), (3, 2)), ((1, 1), (2, 1)), ((2, 1), (1, 1)), ((1, 3), (2, 3)), ((2, 3), (1, 3)), ((2, 1), (2, 2)), ((2, 2), (2, 1)), ((2, 0), (2, 1)), ((2, 1), (2, 0)), ((0, 2), (0, 3)), ((0, 3), (0, 2)), ((2, 1), (3, 1)), ((3, 1), (2, 1)), ((2, 3), (3, 3)), ((3, 3), (2, 3)), ((0, 0), (1, 0)), ((1, 0), (0, 0)), ((1, 2), (1, 3)), ((1, 3), (1, 2))]",6,5,2.2231
MP01,2,61,"(3, 2)","(0, 1)",17,2,1,"[((2, 2), (2, 3)), ((2, 3), (2, 2)), ((1, 3), (2, 3)), ((2, 3), (1, 3)), ((2, 3), (3, 3)), ((3, 3), (2, 3)), ((0, 3), (1, 3)), ((1, 3), (0, 3)), ((0, 1), (0, 2)), ((0, 2), (0, 1)), ((2, 1), (2, 2)), ((2, 2), (2, 1)), ((3, 1), (3, 2)), ((3, 2), (3, 1)), ((0, 1), (1, 1)), ((1, 1), (0, 1)), ((1, 0), (2, 0)), ((2, 0), (1, 0)), ((1, 0), (1, 1)), ((1, 1), (1, 0)), ((3, 2), (3, 3)), ((3, 3), (3, 2)), ((0, 2), (0, 3)), ((0, 3), (0, 2)), ((0, 0), (0, 1)), ((0, 1), (0, 0)), ((2, 0), (3, 0)), ((3, 0), (2, 0)), ((1, 1), (1, 2)), ((1, 2), (1, 1)), ((2, 0), (2, 1)), ((2, 1), (2, 0)), ((0, 0), (1, 0)), ((1, 0), (0, 0))]",3,1,0.8102
MP01,2,62,"(0, 1)","(3, 2)",17,2,1,"[((0, 1), (1, 1)), ((1, 1), (0, 1)), ((2, 2), (3, 2)), ((3, 2), (2, 2)), ((3, 1), (3, 2)), ((3, 2), (3, 1)), ((0, 3), (1, 3)), ((1, 3), (0, 3)), ((0, 0), (1, 0)), ((1, 0), (0, 0)), ((2, 0), (2, 1)), ((2, 1), (2, 0)), ((2, 3), (3, 3)), ((3, 3), (2, 3)), ((0, 1), (0, 2)), ((0, 2), (0, 1)), ((0, 2), (0, 3)), ((0, 3), (0, 2)), ((1, 1), (1, 2)), ((1, 2), (1, 1)), ((3, 0), (3, 1)), ((3, 1), (3, 0)), ((1, 0), (1, 1)), ((1, 1), (1, 0)), ((3, 2), (3, 3)), ((3, 3), (3, 2)), ((2, 0), (3, 0)), ((3, 0), (2, 0)), ((1, 2), (1, 3)), ((1, 3), (1, 2)), ((1, 0), (2, 0)), ((2, 0), (1, 0)), ((0, 0), (0, 1)), ((0, 1), (0, 0))]",5,2,0.7592
MP01,2,63,"(2, 0)","(1, 3)",16,1,1,"[((2, 0), (3, 0)), ((3, 0), (2, 0)), ((0, 1), (0, 2)), ((0, 2), (0, 1)), ((1, 1), (2, 1)), ((2, 1), (1, 1)), ((2, 3), (3, 3)), ((3, 3), (2, 3)), ((1, 2), (1, 3)), ((1, 3), (1, 2)), ((1, 0), (2, 0)), ((2, 0), (1, 0)), ((1, 3), (2, 3)), ((2, 3), (1, 3)), ((3, 2), (3, 3)), ((3, 3), (3, 2)), ((0, 2), (1, 2)), ((1, 2), (0, 2)), ((1, 2), (2, 2)), ((2, 2), (1, 2)), ((2, 1), (3, 1)), ((3, 1), (2, 1)), ((1, 0), (1, 1)), ((1, 1), (1, 0)), ((0, 1), (1, 1)), ((1, 1), (0, 1)), ((0, 2), (0, 3)), ((0, 3), (0, 2)), ((2, 0), (2, 1)), ((2, 1), (2, 0)), ((0, 0), (1, 0)), ((1, 0), (0, 0))]",2,2,1.228
MP01,3,1,"(3, 1)","(0, 2)",15,0,5,"[((2, 1), (3, 1)), ((3, 1), (2, 1)), ((1, 3), (2, 3)), ((2, 3), (1, 3)), ((2, 2), (3, 2)), ((3, 2), (2, 2)), ((2, 3), (3, 3)), ((3, 3), (2, 3)), ((1, 2), (2, 2)), ((2, 2), (1, 2)), ((1, 1), (1, 2)), ((1, 2), (1, 1)), ((0, 1), (1, 1)), ((1, 1), (0, 1)), ((1, 2), (1, 3)), ((1, 3), (1, 2)), ((2, 0), (2, 1)), ((2, 1), (2, 0)), ((1, 0), (1, 1)), ((1, 1), (1, 0)), ((0, 2), (0, 3)), ((0, 3), (0, 2)), ((1, 0), (2, 0)), ((2, 0), (1, 0)), ((2, 0), (3, 0)), ((3, 0), (2, 0)), ((0, 1), (0, 2)), ((0, 2), (0, 1)), ((0, 0), (1, 0)), ((1, 0), (0, 0))]",1,1,0.649
MP01,3,2,"(0, 1)","(3, 2)",16,1,5,"[((0, 0), (0, 1)), ((0, 1), (0, 0)), ((2, 1), (3, 1)), ((3, 1), (2, 1)), ((0, 1), (0, 2)), ((0, 2), (0, 1)), ((0, 2), (1, 2)), ((1, 2), (0, 2)), ((2, 2), (3, 2)), ((3, 2), (2, 2)), ((2, 0), (3, 0)), ((3, 0), (2, 0)), ((2, 3), (3, 3)), ((3, 3), (2, 3)), ((3, 1), (3, 2)), ((3, 2), (3, 1)), ((0, 0), (1, 0)), ((1, 0), (0, 0)), ((0, 2), (0, 3)), ((0, 3), (0, 2)), ((1, 2), (1, 3)), ((1, 3), (1, 2)), ((0, 1), (1, 1)), ((1, 1), (0, 1)), ((1, 0), (1, 1)), ((1, 1), (1, 0)), ((1, 0), (2, 0)), ((2, 0), (1, 0)), ((1, 3), (2, 3)), ((2, 3), (1, 3)), ((1, 2), (2, 2)), ((2, 2), (1, 2))]",3,1,0.3569
MP01,3,3,"(3, 2)","(0, 1)",16,1,5,"[((2, 1), (2, 2)), ((2, 2), (2, 1)), ((2, 2), (2, 3)), ((2, 3), (2, 2)), ((1, 2), (1, 3)), ((1, 3), (1, 2)), ((2, 0), (3, 0)), ((3, 0), (2, 0)), ((3, 2), (3, 3)), ((3, 3), (3, 2)), ((1, 1), (2, 1)), ((2, 1), (1, 1)), ((3, 0), (3, 1)), ((3, 1), (3, 0)), ((0, 1), (0, 2)), ((0, 2), (0, 1)), ((2, 3), (3, 3)), ((3, 3), (2, 3)), ((1, 0), (1, 1)), ((1, 1), (1, 0)), ((1, 1), (1, 2)), ((1, 2), (1, 1)), ((0, 2), (1, 2)), ((1, 2), (0, 2)), ((0, 0), (0, 1)), ((0, 1), (0, 0)), ((1, 2), (2, 2)), ((2, 2), (1, 2)), ((0, 2), (0, 3)), ((0, 3), (0, 2)), ((2, 1), (3, 1)), ((3, 1), (2, 1))]",2,2,0.78
MP01,3,4,"(1, 0)","(2, 3)",18,3,5,"[((2, 0), (2, 1)), ((2, 1), (2, 0)), ((2, 2), (2, 3)), ((2, 3), (2, 2)), ((1, 3), (2, 3)), ((2, 3), (1, 3)), ((1, 0), (2, 0)), ((2, 0), (1, 0)), ((0, 2), (1, 2)), ((1, 2), (0, 2)), ((1, 0), (1, 1)), ((1, 1), (1, 0)), ((3, 2), (3, 3)), ((3, 3), (3, 2)), ((2, 1), (3, 1)), ((3, 1), (2, 1)), ((2, 1), (2, 2)), ((2, 2), (2, 1)), ((0, 3), (1, 3)), ((1, 3), (0, 3)), ((3, 0), (3, 1)), ((3, 1), (3, 0)), ((2, 0), (3, 0)), ((3, 0), (2, 0)), ((0, 0), (0, 1)), ((0, 1), (0, 0)), ((1, 2), (1, 3)), ((1, 3), (1, 2)), ((0, 2), (0, 3)), ((0, 3), (0, 2)), ((2, 2), (3, 2)), ((3, 2), (2, 2)), ((3, 1), (3, 2)), ((3, 2), (3, 1)), ((0, 0), (1, 0)), ((1, 0), (0, 0))]",4,4,1.1468
MP01,3,5,"(2, 0)","(1, 3)",15,0,5,"[((2, 2), (2, 3)), ((2, 3), (2, 2)), ((2, 0), (3, 0)), ((3, 0), (2, 0)), ((3, 1), (3, 2)), ((3, 2), (3, 1)), ((1, 2), (2, 2)), ((2, 2), (1, 2)), ((2, 2), (3, 2)), ((3, 2), (2, 2)), ((3, 0), (3, 1)), ((3, 1), (3, 0)), ((0, 1), (1, 1)), ((1, 1), (0, 1)), ((0, 0), (0, 1)), ((0, 1), (0, 0)), ((1, 3), (2, 3)), ((2, 3), (1, 3)), ((0, 1), (0, 2)), ((0, 2), (0, 1)), ((0, 3), (1, 3)), ((1, 3), (0, 3)), ((2, 1), (2, 2)), ((2, 2), (2, 1)), ((1, 0), (1, 1)), ((1, 1), (1, 0)), ((1, 1), (2, 1)), ((2, 1), (1, 1)), ((3, 2), (3, 3)), ((3, 3), (3, 2))]",1,1,0.6544
MP01,3,6,"(0, 2)","(3, 1)",18,3,5,"[((1, 2), (2, 2)), ((2, 2), (1, 2)), ((0, 3), (1, 3)), ((1, 3), (0, 3)), ((2, 2), (2, 3)), ((2, 3), (2, 2)), ((0, 1), (1, 1)), ((1, 1), (0, 1)), ((0, 0), (0, 1)), ((0, 1), (0, 0)), ((2, 0), (3, 0)), ((3, 0), (2, 0)), ((1, 2), (1, 3)), ((1, 3), (1, 2)), ((1, 0), (2, 0)), ((2, 0), (1, 0)), ((2, 1), (2, 2)), ((2, 2), (2, 1)), ((0, 0), (1, 0)), ((1, 0), (0, 0)), ((0, 2), (1, 2)), ((1, 2), (0, 2)), ((1, 0), (1, 1)), ((1, 1), (1, 0)), ((3, 1), (3, 2)), ((3, 2), (3, 1)), ((3, 0), (3, 1)), ((3, 1), (3, 0)), ((1, 1), (2, 1)), ((2, 1), (1, 1)), ((0, 2), (0, 3)), ((0, 3), (0, 2)), ((3, 2), (3, 3)), ((3, 3), (3, 2)), ((2, 2), (3, 2)), ((3, 2), (2, 2))]",6,4,0.8832
MP01,3,7,"(1, 0)","(2, 3)",18,3,5,"[((1, 0), (1, 1)), ((1, 1), (1, 0)), ((0, 1), (0, 2)), ((0, 2), (0, 1)), ((3, 0), (3, 1)), ((3, 1), (3, 0)), ((2, 0), (3, 0)), ((3, 0), (2, 0)), ((0, 0), (0, 1)), ((0, 1), (0, 0)), ((1, 1), (1, 2)), ((1, 2), (1, 1)), ((2, 3), (3, 3)), ((3, 3), (2, 3)), ((2, 1), (3, 1)), ((3, 1), (2, 1)), ((1, 3), (2, 3)), ((2, 3), (1, 3)), ((1, 0), (2, 0)), ((2, 0), (1, 0)), ((2, 0), (2, 1)), ((2, 1), (2, 0)), ((2, 1), (2, 2)), ((2, 2), (2, 1)), ((0, 1), (1, 1)), ((1, 1), (0, 1)), ((3, 1), (3, 2)), ((3, 2), (3, 1)), ((1, 2), (1, 3)), ((1, 3), (1, 2)), ((3, 2), (3, 3)), ((3, 3), (3, 2)), ((1, 1), (2, 1)), ((2, 1), (1, 1)), ((0, 2), (0, 3)), ((0, 3), (0, 2))]",7,6,0.8539
MP01,3,8,"(2, 0)","(1, 3)",18,3,5,"[((2, 1), (2, 2)), ((2, 2), (2, 1)), ((1, 3), (2, 3)), ((2, 3), (1, 3)), ((0, 3), (1, 3)), ((1, 3), (0, 3)), ((3, 0), (3, 1)), ((3, 1), (3, 0)), ((0, 0), (0, 1)), ((0, 1), (0, 0)), ((1, 2), (1, 3)), ((1, 3), (1, 2)), ((3, 2), (3, 3)), ((3, 3), (3, 2)), ((1, 1), (2, 1)), ((2, 1), (1, 1)), ((2, 3), (3, 3)), ((3, 3), (2, 3)), ((1, 1), (1, 2)), ((1, 2), (1, 1)), ((2, 0), (2, 1)), ((2, 1), (2, 0)), ((0, 1), (0, 2)), ((0, 2), (0, 1)), ((1, 2), (2, 2)), ((2, 2), (1, 2)), ((2, 2), (2, 3)), ((2, 3), (2, 2)), ((0, 2), (1, 2)), ((1, 2), (0, 2)), ((2, 0), (3, 0)), ((3, 0), (2, 0)), ((0, 0), (1, 0)), ((1, 0), (0, 0)), ((3, 1), (3, 2)), ((3, 2), (3, 1))]",7,4,1.3299
MP01,3,9,"(2, 3)","(1, 0)",17,2,5,"[((3, 1), (3, 2)), ((3, 2), (3, 1)), ((2, 2), (2, 3)), ((2, 3), (2, 2)), ((2, 1), (2, 2)), ((2, 2), (2, 1)), ((2, 1), (3, 1)), ((3, 1), (2, 1)), ((2, 0), (3, 0)), ((3, 0), (2, 0)), ((1, 0), (1, 1)), ((1, 1), (1, 0)), ((1, 1), (2, 1)), ((2, 1), (1, 1)), ((0, 1), (0, 2)), ((0, 2), (0, 1)), ((2, 2), (3, 2)), ((3, 2), (2, 2)), ((1, 1), (1, 2)), ((1, 2), (1, 1)), ((2, 3), (3, 3)), ((3, 3), (2, 3)), ((0, 2), (1, 2)), ((1, 2), (0, 2)), ((0, 0), (1, 0)), ((1, 0), (0, 0)), ((0, 1), (1, 1)), ((1, 1), (0, 1)), ((2, 0), (2, 1)), ((2, 1), (2, 0)), ((0, 2), (0, 3)), ((0, 3), (0, 2)), ((0, 3), (1, 3)), ((1, 3), (0, 3))]",6,5,2.0351
MP01,3,10,"(0, 1)","(3, 2)",18,3,5,"[((2, 0), (2, 1)), ((2, 1), (2, 0)), ((0, 0), (0, 1)), ((0, 1), (0, 0)), ((0, 2), (0, 3)), ((0, 3), (0, 2)), ((0, 3), (1, 3)), ((1, 3), (0, 3)), ((1, 2), (1, 3)), ((1, 3), (1, 2)), ((2, 2), (3, 2)), ((3, 2), (2, 2)), ((2, 0), (3, 0)), ((3, 0), (2, 0)), ((1, 0), (2, 0)), ((2, 0), (1, 0)), ((0, 1), (1, 1)), ((1, 1), (0, 1)), ((3, 0), (3, 1)), ((3, 1), (3, 0)), ((2, 3), (3, 3)), ((3, 3), (2, 3)), ((1, 1), (1, 2)), ((1, 2), (1, 1)), ((1, 2), (2, 2)), ((2, 2), (1, 2)), ((1, 3), (2, 3)), ((2, 3), (1, 3)), ((0, 0), (1, 0)), ((1, 0), (0, 0)), ((1, 1), (2, 1)), ((2, 1), (1, 1)), ((3, 1), (3, 2)), ((3, 2), (3, 1)), ((2, 1), (2, 2)), ((2, 2), (2, 1))]",7,6,0.5655
MP01,3,11,"(0, 1)","(3, 2)",18,3,5,"[((3, 1), (3, 2)), ((3, 2), (3, 1)), ((0, 0), (0, 1)), ((0, 1), (0, 0)), ((0, 1), (1, 1)), ((1, 1), (0, 1)), ((1, 3), (2, 3)), ((2, 3), (1, 3)), ((2, 3), (3, 3)), ((3, 3), (2, 3)), ((1, 0), (2, 0)), ((2, 0), (1, 0)), ((0, 2), (0, 3)), ((0, 3), (0, 2)), ((0, 0), (1, 0)), ((1, 0), (0, 0)), ((2, 0), (2, 1)), ((2, 1), (2, 0)), ((1, 2), (2, 2)), ((2, 2), (1, 2)), ((2, 2), (3, 2)), ((3, 2), (2, 2)), ((2, 1), (3, 1)), ((3, 1), (2, 1)), ((0, 1), (0, 2)), ((0, 2), (0, 1)), ((1, 2), (1, 3)), ((1, 3), (1, 2)), ((1, 1), (1, 2)), ((1, 2), (1, 1)), ((1, 0), (1, 1)), ((1, 1), (1, 0)), ((3, 2), (3, 3)), ((3, 3), (3, 2)), ((2, 0), (3, 0)), ((3, 0), (2, 0))]",6,5,1.1543
MP01,3,12,"(2, 0)","(1, 3)",18,3,5,"[((1, 2), (2, 2)), ((2, 2), (1, 2)), ((0, 2), (0, 3)), ((0, 3), (0, 2)), ((2, 2), (3, 2)), ((3, 2), (2, 2)), ((0, 2), (1, 2)), ((1, 2), (0, 2)), ((1, 0), (2, 0)), ((2, 0), (1, 0)), ((2, 1), (2, 2)), ((2, 2), (2, 1)), ((2, 0), (3, 0)), ((3, 0), (2, 0)), ((0, 0), (0, 1)), ((0, 1), (0, 0)), ((0, 1), (0, 2)), ((0, 2), (0, 1)), ((3, 1), (3, 2)), ((3, 2), (3, 1)), ((2, 3), (3, 3)), ((3, 3), (2, 3)), ((1, 1), (1, 2)), ((1, 2), (1, 1)), ((0, 1), (1, 1)), ((1, 1), (0, 1)), ((3, 0), (3, 1)), ((3, 1), (3, 0)), ((0, 0), (1, 0)), ((1, 0), (0, 0)), ((0, 3), (1, 3)), ((1, 3), (0, 3)), ((1, 3), (2, 3)), ((2, 3), (1, 3)), ((2, 2), (2, 3)), ((2, 3), (2, 2))]",7,6,1.1226
MP01,3,13,"(1, 0)","(2, 3)",16,1,5,"[((0, 1), (0, 2)), ((0, 2), (0, 1)), ((2, 2), (2, 3)), ((2, 3), (2, 2)), ((2, 3), (3, 3)), ((3, 3), (2, 3)), ((0, 2), (0, 3)), ((0, 3), (0, 2)), ((0, 3), (1, 3)), ((1, 3), (0, 3)), ((0, 1), (1, 1)), ((1, 1), (0, 1)), ((3, 1), (3, 2)), ((3, 2), (3, 1)), ((0, 0), (1, 0)), ((1, 0), (0, 0)), ((2, 0), (3, 0)), ((3, 0), (2, 0)), ((1, 3), (2, 3)), ((2, 3), (1, 3)), ((1, 0), (1, 1)), ((1, 1), (1, 0)), ((0, 2), (1, 2)), ((1, 2), (0, 2)), ((2, 0), (2, 1)), ((2, 1), (2, 0)), ((3, 2), (3, 3)), ((3, 3), (3, 2)), ((2, 1), (2, 2)), ((2, 2), (2, 1)), ((3, 0), (3, 1)), ((3, 1), (3, 0))]",1,1,0.3048
MP01,3,14,"(2, 3)","(1, 0)",17,2,5,"[((3, 1), (3, 2)), ((3, 2), (3, 1)), ((0, 1), (0, 2)), ((0, 2), (0, 1)), ((0, 0), (0, 1)), ((0, 1), (0, 0)), ((2, 1), (2, 2)), ((2, 2), (2, 1)), ((2, 0), (3, 0)), ((3, 0), (2, 0)), ((1, 0), (2, 0)), ((2, 0), (1, 0)), ((2, 2), (3, 2)), ((3, 2), (2, 2)), ((1, 0), (1, 1)), ((1, 1), (1, 0)), ((2, 2), (2, 3)), ((2, 3), (2, 2)), ((1, 1), (1, 2)), ((1, 2), (1, 1)), ((0, 3), (1, 3)), ((1, 3), (0, 3)), ((2, 3), (3, 3)), ((3, 3), (2, 3)), ((2, 0), (2, 1)), ((2, 1), (2, 0)), ((2, 1), (3, 1)), ((3, 1), (2, 1)), ((3, 0), (3, 1)), ((3, 1), (3, 0)), ((1, 2), (1, 3)), ((1, 3), (1, 2)), ((0, 0), (1, 0)), ((1, 0), (0, 0))]",4,5,0.9645
MP01,3,15,"(2, 3)","(1, 0)",17,2,5,"[((3, 1), (3, 2)), ((3, 2), (3, 1)), ((1, 0), (1, 1)), ((1, 1), (1, 0)), ((1, 1), (2, 1)), ((2, 1), (1, 1)), ((0, 0), (0, 1)), ((0, 1), (0, 0)), ((2, 2), (3, 2)), ((3, 2), (2, 2)), ((3, 0), (3, 1)), ((3, 1), (3, 0)), ((0, 1), (0, 2)), ((0, 2), (0, 1)), ((0, 2), (1, 2)), ((1, 2), (0, 2)), ((2, 1), (3, 1)), ((3, 1), (2, 1)), ((0, 2), (0, 3)), ((0, 3), (0, 2)), ((2, 3), (3, 3)), ((3, 3), (2, 3)), ((3, 2), (3, 3)), ((3, 3), (3, 2)), ((1, 0), (2, 0)), ((2, 0), (1, 0)), ((2, 0), (3, 0)), ((3, 0), (2, 0)), ((1, 2), (1, 3)), ((1, 3), (1, 2)), ((1, 1), (1, 2)), ((1, 2), (1, 1)), ((0, 3), (1, 3)), ((1, 3), (0, 3))]",2,2,0.6354
