pid,block,trial,start,end,edge_count,cyclomatic,stim_time,edges,n_paths,response,rt
003,practice,1,"(0, 1)","(3, 2)",17,2,3,"[((3, 0), (3, 1)), ((3, 1), (3, 0)), ((2, 1), (3, 1)), ((3, 1), (2, 1)), ((3, 2), (3, 3)), ((3, 3), (3, 2)), ((0, 2), (0, 3)), ((0, 3), (0, 2)), ((2, 1), (2, 2)), ((2, 2), (2, 1)), ((1, 0), (1, 1)), ((1, 1), (1, 0)), ((0, 0), (1, 0)), ((1, 0), (0, 0)), ((0, 3), (1, 3)), ((1, 3), (0, 3)), ((1, 1), (1, 2)), ((1, 2), (1, 1)), ((0, 0), (0, 1)), ((0, 1), (0, 0)), ((0, 1), (0, 2)), ((0, 2), (0, 1)), ((1, 3), (2, 3)), ((2, 3), (1, 3)), ((1, 2), (1, 3)), ((1, 3), (1, 2)), ((2, 3), (3, 3)), ((3, 3), (2, 3)), ((1, 2), (2, 2)), ((2, 2), (1, 2)), ((2, 0), (3, 0)), ((3, 0), (2, 0)), ((0, 2), (1, 2)), ((1, 2), (0, 2))]",4,,
003,practice,2,"(2, 0)","(1, 3)",18,3,3,"[((1, 2), (2, 2)), ((2, 2), (1, 2)), ((0, 0), (1, 0)), ((1, 0), (0, 0)), ((1, 0), (1, 1)), ((1, 1), (1, 0)), ((0, 0), (0, 1)), ((0, 1), (0, 0)), ((0, 2), (1, 2)), ((1, 2), (0, 2)), ((2, 1), (2, 2)), ((2, 2), (2, 1)), ((2, 1), (3, 1)), ((3, 1), (2, 1)), ((1, 1), (2, 1)), ((2, 1), (1, 1)), ((1, 3), (2, 3)), ((2, 3), (1, 3)), ((2, 0), (3, 0)), ((3, 0), (2, 0)), ((3, 1), (3, 2)), ((3, 2), (3, 1)), ((3, 2), (3, 3)), ((3, 3), (3, 2)), ((1, 2), (1, 3)), ((1, 3), (1, 2)), ((3, 0), (3, 1)), ((3, 1), (3, 0)), ((0, 3), (1, 3)), ((1, 3), (0, 3)), ((2, 2), (3, 2)), ((3, 2), (2, 2)), ((2, 3), (3, 3)), ((3, 3), (2, 3)), ((1, 1), (1, 2)), ((1, 2), (1, 1))]",7,6,1.5056
003,practice,3,"(0, 1)","(3, 2)",18,3,3,"[((0, 1), (0, 2)), ((0, 2), (0, 1)), ((0, 0), (1, 0)), ((1, 0), (0, 0)), ((0, 0), (0, 1)), ((0, 1), (0, 0)), ((2, 2), (2, 3)), ((2, 3), (2, 2)), ((2, 3), (3, 3)), ((3, 3), (2, 3)), ((2, 0), (3, 0)), ((3, 0), (2, 0)), ((3, 0), (3, 1)), ((3, 1), (3, 0)), ((1, 0), (1, 1)), ((1, 1), (1, 0)), ((1, 1), (1, 2)), ((1, 2), (1, 1)), ((0, 1), (1, 1)), ((1, 1), (0, 1)), ((1, 3), (2, 3)), ((2, 3), (1, 3)), ((2, 1), (3, 1)), ((3, 1), (2, 1)), ((0, 3), (1, 3)), ((1, 3), (0, 3)), ((1, 2), (2, 2)), ((2, 2), (1, 2)), ((3, 2), (3, 3)), ((3, 3), (3, 2)), ((0, 2), (0, 3)), ((0, 3), (0, 2)), ((1, 0), (2, 0)), ((2, 0), (1, 0)), ((2, 0), (2, 1)), ((2, 1), (2, 0))]",5,5,3.0006
003,practice,4,"(1, 0)","(2, 3)",17,2,3,"[((2, 0), (2, 1)), ((2, 1), (2, 0)), ((2, 1), (3, 1)), ((3, 1), (2, 1)), ((1, 3), (2, 3)), ((2, 3), (1, 3)), ((1, 1), (1, 2)), ((1, 2), (1, 1)), ((3, 2), (3, 3)), ((3, 3), (3, 2)), ((3, 0), (3, 1)), ((3, 1), (3, 0)), ((1, 2), (2, 2)), ((2, 2), (1, 2)), ((0, 1), (0, 2)), ((0, 2), (0, 1)), ((1, 1), (2, 1)), ((2, 1), (1, 1)), ((2, 2), (2, 3)), ((2, 3), (2, 2)), ((1, 0), (2, 0)), ((2, 0), (1, 0)), ((0, 3), (1, 3)), ((1, 3), (0, 3)), ((3, 1), (3, 2)), ((3, 2), (3, 1)), ((0, 0), (1, 0)), ((1, 0), (0, 0)), ((0, 2), (1, 2)), ((1, 2), (0, 2)), ((2, 0), (3, 0)), ((3, 0), (2, 0)), ((1, 2), (1, 3)), ((1, 3), (1, 2))]",4,4,1.5241
003,practice,5,"(3, 2)","(0, 1)",17,2,3,"[((2, 1), (3, 1)), ((3, 1), (2, 1)), ((2, 2), (2, 3)), ((2, 3), (2, 2)), ((2, 0), (2, 1)), ((2, 1), (2, 0)), ((1, 0), (2, 0)), ((2, 0), (1, 0)), ((1, 1), (1, 2)), ((1, 2), (1, 1)), ((0, 1), (0, 2)), ((0, 2), (0, 1)), ((0, 2), (0, 3)), ((0, 3), (0, 2)), ((3, 0), (3, 1)), ((3, 1), (3, 0)), ((3, 2), (3, 3)), ((3, 3), (3, 2)), ((0, 0), (0, 1)), ((0, 1), (0, 0)), ((2, 0), (3, 0)), ((3, 0), (2, 0)), ((1, 2), (1, 3)), ((1, 3), (1, 2)), ((0, 3), (1, 3)), ((1, 3), (0, 3)), ((2, 3), (3, 3)), ((3, 3), (2, 3)), ((1, 2), (2, 2)), ((2, 2), (1, 2)), ((0, 1), (1, 1)), ((1, 1), (0, 1)), ((0, 0), (1, 0)), ((1, 0), (0, 0))]",2,2,1.1722
003,practice,6,"(3, 2)","(0, 1)",17,2,3,"[((1, 0), (1, 1)), ((1, 1), (1, 0)), ((1, 2), (2, 2)), ((2, 2), (1, 2)), ((0, 2), (1, 2)), ((1, 2), (0, 2)), ((0, 1), (1, 1)), ((1, 1), (0, 1)), ((2, 0), (3, 0)), ((3, 0), (2, 0)), ((2, 2), (3, 2)), ((3, 2), (2, 2)), ((1, 0), (2, 0)), ((2, 0), (1, 0)), ((0, 0), (1, 0)), ((1, 0), (0, 0)), ((2, 3), (3, 3)), ((3, 3), (2, 3)), ((3, 1), (3, 2)), ((3, 2), (3, 1)), ((2, 1), (2, 2)), ((2, 2), (2, 1)), ((3, 0), (3, 1)), ((3, 1), (3, 0)), ((1, 1), (2, 1)), ((2, 1), (1, 1)), ((1, 2), (1, 3)), ((1, 3), (1, 2)), ((0, 2), (0, 3)), ((0, 3), (0, 2)), ((2, 2), (2, 3)), ((2, 3), (2, 2)), ((3, 2), (3, 3)), ((3, 3), (3, 2))]",5,2,1.2544
003,practice,7,"(0, 2)","(3, 1)",15,0,3,"[((2, 2), (3, 2)), ((3, 2), (2, 2)), ((0, 2), (1, 2)), ((1, 2), (0, 2)), ((0, 2), (0, 3)), ((0, 3), (0, 2)), ((0, 0), (0, 1)), ((0, 1), (0, 0)), ((1, 0), (2, 0)), ((2, 0), (1, 0)), ((1, 0), (1, 1)), ((1, 1), (1, 0)), ((3, 0), (3, 1)), ((3, 1), (3, 0)), ((2, 3), (3, 3)), ((3, 3), (2, 3)), ((2, 0), (3, 0)), ((3, 0), (2, 0)), ((0, 3), (1, 3)), ((1, 3), (0, 3)), ((2, 2), (2, 3)), ((2, 3), (2, 2)), ((0, 1), (0, 2)), ((0, 2), (0, 1)), ((1, 1), (1, 2)), ((1, 2), (1, 1)), ((1, 3), (2, 3)), ((2, 3), (1, 3)), ((2, 0), (2, 1)), ((2, 1), (2, 0))]",1,1,1.4431
003,practice,8,"(0, 1)","(3, 2)",17,2,3,"[((1, 3), (2, 3)), ((2, 3), (1, 3)), ((0, 3), (1, 3)), ((1, 3), (0, 3)), ((2, 1), (3, 1)), ((3, 1), (2, 1)), ((0, 0), (1, 0)), ((1, 0), (0, 0)), ((2, 0), (3, 0)), ((3, 0), (2, 0)), ((0, 1), (0, 2)), ((0, 2), (0, 1)), ((1, 0), (1, 1)), ((1, 1), (1, 0)), ((3, 0), (3, 1)), ((3, 1), (3, 0)), ((2, 2), (2, 3)), ((2, 3), (2, 2)), ((2, 2), (3, 2)), ((3, 2), (2, 2)), ((3, 1), (3, 2)), ((3, 2), (3, 1)), ((1, 2), (1, 3)), ((1, 3), (1, 2)), ((1, 0), (2, 0)), ((2, 0), (1, 0)), ((2, 1), (2, 2)), ((2, 2), (2, 1)), ((0, 0), (0, 1)), ((0, 1), (0, 0)), ((2, 3), (3, 3)), ((3, 3), (2, 3)), ((1, 2), (2, 2)), ((2, 2), (1, 2))]",4,2,1.1205
003,practice,9,"(2, 0)","(1, 3)",17,2,3,"[((1, 0), (1, 1)), ((1, 1), (1, 0)), ((3, 0), (3, 1)), ((3, 1), (3, 0)), ((1, 1), (1, 2)), ((1, 2), (1, 1)), ((2, 1), (3, 1)), ((3, 1), (2, 1)), ((3, 2), (3, 3)), ((3, 3), (3, 2)), ((0, 1), (0, 2)), ((0, 2), (0, 1)), ((1, 1), (2, 1)), ((2, 1), (1, 1)), ((0, 3), (1, 3)), ((1, 3), (0, 3)), ((2, 0), (3, 0)), ((3, 0), (2, 0)), ((0, 0), (1, 0)), ((1, 0), (0, 0)), ((0, 1), (1, 1)), ((1, 1), (0, 1)), ((1, 2), (2, 2)), ((2, 2), (1, 2)), ((2, 2), (3, 2)), ((3, 2), (2, 2)), ((1, 3), (2, 3)), ((2, 3), (1, 3)), ((2, 2), (2, 3)), ((2, 3), (2, 2)), ((1, 0), (2, 0)), ((2, 0), (1, 0)), ((0, 2), (1, 2)), ((1, 2), (0, 2))]",4,5,1.604
003,practice,10,"(3, 1)","(0, 2)",18,3,3,"[((0, 2), (0, 3)), ((0, 3), (0, 2)), ((0, 0), (1, 0)), ((1, 0), (0, 0)), ((2, 3), (3, 3)), ((3, 3), (2, 3)), ((2, 1), (3, 1)), ((3, 1), (2, 1)), ((0, 0), (0, 1)), ((0, 1), (0, 0)), ((1, 0), (1, 1)), ((1, 1), (1, 0)), ((2, 2), (3, 2)), ((3, 2), (2, 2)), ((0, 1), (0, 2)), ((0, 2), (0, 1)), ((1, 3), (2, 3)), ((2, 3), (1, 3)), ((1, 1), (1, 2)), ((1, 2), (1, 1)), ((2, 2), (2, 3)), ((2, 3), (2, 2)), ((0, 2), (1, 2)), ((1, 2), (0, 2)), ((2, 0), (2, 1)), ((2, 1), (2, 0)), ((2, 1), (2, 2)), ((2, 2), (2, 1)), ((1, 2), (2, 2)), ((2, 2), (1, 2)), ((0, 1), (1, 1)), ((1, 1), (0, 1)), ((2, 0), (3, 0)), ((3, 0), (2, 0)), ((1, 2), (1, 3)), ((1, 3), (1, 2))]",6,8,1.3538
003,practice,11,"(3, 1)","(0, 2)",18,3,3,"[((2, 0), (2, 1)), ((2, 1), (2, 0)), ((1, 1), (1, 2)), ((1, 2), (1, 1)), ((0, 1), (0, 2)), ((0, 2), (0, 1)), ((2, 3), (3, 3)), ((3, 3), (2, 3)), ((2, 0), (3, 0)), ((3, 0), (2, 0)), ((1, 0), (2, 0)), ((2, 0), (1, 0)), ((0, 0), (1, 0)), ((1, 0), (0, 0)), ((0, 0), (0, 1)), ((0, 1), (0, 0)), ((0, 2), (0, 3)), ((0, 3), (0, 2)), ((1, 0), (1, 1)), ((1, 1), (1, 0)), ((2, 2), (2, 3)), ((2, 3), (2, 2)), ((3, 1), (3, 2)), ((3, 2), (3, 1)), ((3, 0), (3, 1)), ((3, 1), (3, 0)), ((1, 1), (2, 1)), ((2, 1), (1, 1)), ((1, 2), (1, 3)), ((1, 3), (1, 2)), ((0, 2), (1, 2)), ((1, 2), (0, 2)), ((2, 2), (3, 2)), ((3, 2), (2, 2)), ((0, 3), (1, 3)), ((1, 3), (0, 3))]",6,6,1.2199
003,practice,12,"(1, 3)","(2, 0)",18,3,3,"[((0, 0), (0, 1)), ((0, 1), (0, 0)), ((0, 1), (0, 2)), ((0, 2), (0, 1)), ((2, 0), (2, 1)), ((2, 1), (2, 0)), ((0, 3), (1, 3)), ((1, 3), (0, 3)), ((1, 2), (1, 3)), ((1, 3), (1, 2)), ((0, 2), (0, 3)), ((0, 3), (0, 2)), ((3, 2), (3, 3)), ((3, 3), (3, 2)), ((2, 0), (3, 0)), ((3, 0), (2, 0)), ((1, 1), (2, 1)), ((2, 1), (1, 1)), ((0, 1), (1, 1)), ((1, 1), (0, 1)), ((1, 0), (2, 0)), ((2, 0), (1, 0)), ((1, 0), (1, 1)), ((1, 1), (1, 0)), ((0, 0), (1, 0)), ((1, 0), (0, 0)), ((2, 1), (2, 2)), ((2, 2), (2, 1)), ((3, 0), (3, 1)), ((3, 1), (3, 0)), ((1, 2), (2, 2)), ((2, 2), (1, 2)), ((2, 3), (3, 3)), ((3, 3), (2, 3)), ((1, 3), (2, 3)), ((2, 3), (1, 3))]",7,4,1.1384
003,practice,13,"(2, 3)","(1, 0)",17,2,3,"[((1, 3), (2, 3)), ((2, 3), (1, 3)), ((0, 2), (1, 2)), ((1, 2), (0, 2)), ((1, 0), (1, 1)), ((1, 1), (1, 0)), ((2, 0), (3, 0)), ((3, 0), (2, 0)), ((2, 0), (2, 1)), ((2, 1), (2, 0)), ((3, 0), (3, 1)), ((3, 1), (3, 0)), ((2, 1), (2, 2)), ((2, 2), (2, 1)), ((0, 1), (0, 2)), ((0, 2), (0, 1)), ((1, 1), (1, 2)), ((1, 2), (1, 1)), ((3, 1), (3, 2)), ((3, 2), (3, 1)), ((1, 2), (1, 3)), ((1, 3), (1, 2)), ((2, 3), (3, 3)), ((3, 3), (2, 3)), ((0, 3), (1, 3)), ((1, 3), (0, 3)), ((0, 0), (1, 0)), ((1, 0), (0, 0)), ((1, 1), (2, 1)), ((2, 1), (1, 1)), ((1, 0), (2, 0)), ((2, 0), (1, 0)), ((2, 2), (3, 2)), ((3, 2), (2, 2))]",3,5,1.6533
003,practice,14,"(0, 1)","(3, 2)",16,1,3,"[((0, 1), (0, 2)), ((0, 2), (0, 1)), ((0, 2), (0, 3)), ((0, 3), (0, 2)), ((1, 0), (2, 0)), ((2, 0), (1, 0)), ((1, 2), (1, 3)), ((1, 3), (1, 2)), ((1, 1), (2, 1)), ((2, 1), (1, 1)), ((2, 2), (3, 2)), ((3, 2), (2, 2)), ((1, 3), (2, 3)), ((2, 3), (1, 3)), ((0, 0), (1, 0)), ((1, 0), (0, 0)), ((3, 1), (3, 2)), ((3, 2), (3, 1)), ((2, 0), (3, 0)), ((3, 0), (2, 0)), ((0, 1), (1, 1)), ((1, 1), (0, 1)), ((3, 2), (3, 3)), ((3, 3), (3, 2)), ((2, 2), (2, 3)), ((2, 3), (2, 2)), ((2, 1), (3, 1)), ((3, 1), (2, 1)), ((3, 0), (3, 1)), ((3, 1), (3, 0)), ((1, 1), (1, 2)), ((1, 2), (1, 1))]",2,2,1.1387
003,practice,15,"(2, 3)","(1, 0)",18,3,3,"[((1, 2), (1, 3)), ((1, 3), (1, 2)), ((0, 2), (0, 3)), ((0, 3), (0, 2)), ((3, 2), (3, 3)), ((3, 3), (3, 2)), ((1, 0), (2, 0)), ((2, 0), (1, 0)), ((3, 0), (3, 1)), ((3, 1), (3, 0)), ((1, 2), (2, 2)), ((2, 2), (1, 2)), ((0, 2), (1, 2)), ((1, 2), (0, 2)), ((2, 0), (3, 0)), ((3, 0), (2, 0)), ((0, 0), (0, 1)), ((0, 1), (0, 0)), ((2, 0), (2, 1)), ((2, 1), (2, 0)), ((2, 3), (3, 3)), ((3, 3), (2, 3)), ((1, 1), (2, 1)), ((2, 1), (1, 1)), ((0, 1), (0, 2)), ((0, 2), (0, 1)), ((0, 1), (1, 1)), ((1, 1), (0, 1)), ((0, 0), (1, 0)), ((1, 0), (0, 0)), ((2, 2), (3, 2)), ((3, 2), (2, 2)), ((1, 1), (1, 2)), ((1, 2), (1, 1)), ((3, 1), (3, 2)), ((3, 2), (3, 1))]",7,2,1.6433
003,practice,16,"(2, 0)","(1, 3)",16,1,3,"[((2, 2), (3, 2)), ((3, 2), (2, 2)), ((2, 1), (2, 2)), ((2, 2), (2, 1)), ((2, 0), (3, 0)), ((3, 0), (2, 0)), ((1, 1), (1, 2)), ((1, 2), (1, 1)), ((0, 1), (1, 1)), ((1, 1), (0, 1)), ((2, 3), (3, 3)), ((3, 3), (2, 3)), ((3, 0), (3, 1)), ((3, 1), (3, 0)), ((3, 2), (3, 3)), ((3, 3), (3, 2)), ((0, 0), (0, 1)), ((0, 1), (0, 0)), ((2, 0), (2, 1)), ((2, 1), (2, 0)), ((0, 3), (1, 3)), ((1, 3), (0, 3)), ((1, 2), (1, 3)), ((1, 3), (1, 2)), ((1, 2), (2, 2)), ((2, 2), (1, 2)), ((0, 0), (1, 0)), ((1, 0), (0, 0)), ((1, 3), (2, 3)), ((2, 3), (1, 3)), ((0, 1), (0, 2)), ((0, 2), (0, 1))]",2,2,2.3997
003,practice,17,"(1, 3)","(2, 0)",17,2,3,"[((3, 2), (3, 3)), ((3, 3), (3, 2)), ((0, 0), (1, 0)), ((1, 0), (0, 0)), ((2, 0), (3, 0)), ((3, 0), (2, 0)), ((1, 2), (2, 2)), ((2, 2), (1, 2)), ((1, 3), (2, 3)), ((2, 3), (1, 3)), ((2, 1), (3, 1)), ((3, 1), (2, 1)), ((1, 1), (2, 1)), ((2, 1), (1, 1)), ((0, 1), (0, 2)), ((0, 2), (0, 1)), ((2, 3), (3, 3)), ((3, 3), (2, 3)), ((0, 0), (0, 1)), ((0, 1), (0, 0)), ((2, 2), (3, 2)), ((3, 2), (2, 2)), ((2, 2), (2, 3)), ((2, 3), (2, 2)), ((3, 1), (3, 2)), ((3, 2), (3, 1)), ((0, 2), (0, 3)), ((0, 3), (0, 2)), ((3, 0), (3, 1)), ((3, 1), (3, 0)), ((0, 1), (1, 1)), ((1, 1), (0, 1)), ((0, 3), (1, 3)), ((1, 3), (0, 3))]",3,3,1.0519
003,practice,18,"(0, 2)","(3, 1)",18,3,3,"[((0, 3), (1, 3)), ((1, 3), (0, 3)), ((0, 1), (1, 1)), ((1, 1), (0, 1)), ((0, 0), (1, 0)), ((1, 0), (0, 0)), ((1, 0), (1, 1)), ((1, 1), (1, 0)), ((1, 1), (2, 1)), ((2, 1), (1, 1)), ((2, 2), (2, 3)), ((2, 3), (2, 2)), ((2, 3), (3, 3)), ((3, 3), (2, 3)), ((1, 0), (2, 0)), ((2, 0), (1, 0)), ((0, 0), (0, 1)), ((0, 1), (0, 0)), ((2, 1), (2, 2)), ((2, 2), (2, 1)), ((3, 0), (3, 1)), ((3, 1), (3, 0)), ((3, 2), (3, 3)), ((3, 3), (3, 2)), ((1, 2), (2, 2)), ((2, 2), (1, 2)), ((2, 1), (3, 1)), ((3, 1), (2, 1)), ((1, 2), (1, 3)), ((1, 3), (1, 2)), ((0, 2), (0, 3)), ((0, 3), (0, 2)), ((1, 3), (2, 3)), ((2, 3), (1, 3)), ((3, 1), (3, 2)), ((3, 2), (3, 1))]",4,5,1.486
003,practice,19,"(2, 3)","(1, 0)",18,3,3,"[((0, 0), (0, 1)), ((0, 1), (0, 0)), ((0, 1), (0, 2)), ((0, 2), (0, 1)), ((1, 2), (2, 2)), ((2, 2), (1, 2)), ((0, 3), (1, 3)), ((1, 3), (0, 3)), ((0, 0), (1, 0)), ((1, 0), (0, 0)), ((1, 1), (1, 2)), ((1, 2), (1, 1)), ((1, 3), (2, 3)), ((2, 3), (1, 3)), ((0, 2), (0, 3)), ((0, 3), (0, 2)), ((2, 0), (3, 0)), ((3, 0), (2, 0)), ((2, 1), (3, 1)), ((3, 1), (2, 1)), ((3, 0), (3, 1)), ((3, 1), (3, 0)), ((1, 0), (1, 1)), ((1, 1), (1, 0)), ((3, 1), (3, 2)), ((3, 2), (3, 1)), ((2, 0), (2, 1)), ((2, 1), (2, 0)), ((1, 1), (2, 1)), ((2, 1), (1, 1)), ((2, 1), (2, 2)), ((2, 2), (2, 1)), ((2, 2), (3, 2)), ((3, 2), (2, 2)), ((3, 2), (3, 3)), ((3, 3), (3, 2))]",1,1,1.0694
003,practice,20,"(2, 3)","(1, 0)",17,2,3,"[((2, 0), (2, 1)), ((2, 1), (2, 0)), ((1, 2), (2, 2)), ((2, 2), (1, 2)), ((2, 1), (3, 1)), ((3, 1), (2, 1)), ((3, 2), (3, 3)), ((3, 3), (3, 2)), ((1, 3), (2, 3)), ((2, 3), (1, 3)), ((0, 2), (1, 2)), ((1, 2), (0, 2)), ((0, 1), (1, 1)), ((1, 1), (0, 1)), ((0, 1), (0, 2)), ((0, 2), (0, 1)), ((2, 1), (2, 2)), ((2, 2), (2, 1)), ((0, 0), (1, 0)), ((1, 0), (0, 0)), ((2, 0), (3, 0)), ((3, 0), (2, 0)), ((0, 2), (0, 3)), ((0, 3), (0, 2)), ((3, 1), (3, 2)), ((3, 2), (3, 1)), ((2, 3), (3, 3)), ((3, 3), (2, 3)), ((1, 0), (2, 0)), ((2, 0), (1, 0)), ((1, 1), (1, 2)), ((1, 2), (1, 1)), ((0, 3), (1, 3)), ((1, 3), (0, 3))]",3,5,1.6209
003,1,1,"(0, 1)","(3, 2)",17,2,3,"[((0, 1), (1, 1)), ((1, 1), (0, 1)), ((1, 1), (2, 1)), ((2, 1), (1, 1)), ((1, 1), (1, 2)), ((1, 2), (1, 1)), ((2, 1), (3, 1)), ((3, 1), (2, 1)), ((2, 2), (2, 3)), ((2, 3), (2, 2)), ((1, 2), (1, 3)), ((1, 3), (1, 2)), ((0, 0), (0, 1)), ((0, 1), (0, 0)), ((0, 2), (0, 3)), ((0, 3), (0, 2)), ((1, 0), (1, 1)), ((1, 1), (1, 0)), ((0, 3), (1, 3)), ((1, 3), (0, 3)), ((1, 3), (2, 3)), ((2, 3), (1, 3)), ((2, 0), (3, 0)), ((3, 0), (2, 0)), ((1, 0), (2, 0)), ((2, 0), (1, 0)), ((0, 1), (0, 2)), ((0, 2), (0, 1)), ((2, 2), (3, 2)), ((3, 2), (2, 2)), ((0, 0), (1, 0)), ((1, 0), (0, 0)), ((2, 3), (3, 3)), ((3, 3), (2, 3))]",5,2,1.3243
003,1,2,"(1, 0)","(2, 3)",18,3,3,"[((1, 2), (2, 2)), ((2, 2), (1, 2)), ((2, 3), (3, 3)), ((3, 3), (2, 3)), ((0, 3), (1, 3)), ((1, 3), (0, 3)), ((2, 2), (2, 3)), ((2, 3), (2, 2)), ((0, 2), (0, 3)), ((0, 3), (0, 2)), ((2, 0), (3, 0)), ((3, 0), (2, 0)), ((2, 0), (2, 1)), ((2, 1), (2, 0)), ((1, 2), (1, 3)), ((1, 3), (1, 2)), ((3, 0), (3, 1)), ((3, 1), (3, 0)), ((1, 1), (2, 1)), ((2, 1), (1, 1)), ((0, 1), (0, 2)), ((0, 2), (0, 1)), ((1, 0), (2, 0)), ((2, 0), (1, 0)), ((3, 2), (3, 3)), ((3, 3), (3, 2)), ((0, 2), (1, 2)), ((1, 2), (0, 2)), ((2, 1), (2, 2)), ((2, 2), (2, 1)), ((0, 0), (1, 0)), ((1, 0), (0, 0)), ((0, 0), (0, 1)), ((0, 1), (0, 0)), ((2, 1), (3, 1)), ((3, 1), (2, 1))]",4,3,1.1545
003,1,3,"(2, 3)","(1, 0)",17,2,3,"[((1, 3), (2, 3)), ((2, 3), (1, 3)), ((2, 1), (2, 2)), ((2, 2), (2, 1)), ((1, 2), (1, 3)), ((1, 3), (1, 2)), ((1, 2), (2, 2)), ((2, 2), (1, 2)), ((0, 1), (0, 2)), ((0, 2), (0, 1)), ((2, 3), (3, 3)), ((3, 3), (2, 3)), ((1, 1), (2, 1)), ((2, 1), (1, 1)), ((0, 2), (1, 2)), ((1, 2), (0, 2)), ((1, 0), (1, 1)), ((1, 1), (1, 0)), ((1, 0), (2, 0)), ((2, 0), (1, 0)), ((3, 0), (3, 1)), ((3, 1), (3, 0)), ((0, 2), (0, 3)), ((0, 3), (0, 2)), ((0, 0), (0, 1)), ((0, 1), (0, 0)), ((2, 2), (2, 3)), ((2, 3), (2, 2)), ((1, 1), (1, 2)), ((1, 2), (1, 1)), ((3, 2), (3, 3)), ((3, 3), (3, 2)), ((2, 0), (3, 0)), ((3, 0), (2, 0))]",4,4,1.3545
003,1,4,"(1, 3)","(2, 0)",17,2,3,"[((3, 0), (3, 1)), ((3, 1), (3, 0)), ((1, 1), (2, 1)), ((2, 1), (1, 1)), ((2, 1), (3, 1)), ((3, 1), (2, 1)), ((0, 0), (1, 0)), ((1, 0), (0, 0)), ((2, 3), (3, 3)), ((3, 3), (2, 3)), ((2, 2), (3, 2)), ((3, 2), (2, 2)), ((2, 1), (2, 2)), ((2, 2), (2, 1)), ((0, 3), (1, 3)), ((1, 3), (0, 3)), ((2, 0), (2, 1)), ((2, 1), (2, 0)), ((1, 2), (2, 2)), ((2, 2), (1, 2)), ((0, 1), (0, 2)), ((0, 2), (0, 1)), ((1, 2), (1, 3)), ((1, 3), (1, 2)), ((0, 2), (1, 2)), ((1, 2), (0, 2)), ((1, 1), (1, 2)), ((1, 2), (1, 1)), ((3, 2), (3, 3)), ((3, 3), (3, 2)), ((3, 1), (3, 2)), ((3, 2), (3, 1)), ((1, 0), (1, 1)), ((1, 1), (1, 0))]",5,7,1.4696
003,1,5,"(2, 0)","(1, 3)",17,2,3,"[((0, 2), (0, 3)), ((0, 3), (0, 2)), ((3, 1), (3, 2)), ((3, 2), (3, 1)), ((2, 1), (3, 1)), ((3, 1), (2, 1)), ((1, 2), (1, 3)), ((1, 3), (1, 2)), ((0, 0), (1, 0)), ((1, 0), (0, 0)), ((2, 2), (3, 2)), ((3, 2), (2, 2)), ((1, 0), (2, 0)), ((2, 0), (1, 0)), ((3, 0), (3, 1)), ((3, 1), (3, 0)), ((1, 2), (2, 2)), ((2, 2), (1, 2)), ((1, 1), (1, 2)), ((1, 2), (1, 1)), ((0, 1), (1, 1)), ((1, 1), (0, 1)), ((2, 0), (3, 0)), ((3, 0), (2, 0)), ((3, 2), (3, 3)), ((3, 3), (3, 2)), ((0, 3), (1, 3)), ((1, 3), (0, 3)), ((2, 1), (2, 2)), ((2, 2), (2, 1)), ((0, 0), (0, 1)), ((0, 1), (0, 0)), ((1, 3), (2, 3)), ((2, 3), (1, 3))]",3,3,1.171
003,1,6,"(2, 3)","(1, 0)",18,3,3,"[((2, 0), (2, 1)), ((2, 1), (2, 0)), ((0, 1), (0, 2)), ((0, 2), (0, 1)), ((2, 0), (3, 0)), ((3, 0), (2, 0)), ((2, 2), (3, 2)), ((3, 2), (2, 2)), ((2, 1), (2, 2)), ((2, 2), (2, 1)), ((2, 1), (3, 1)), ((3, 1), (2, 1)), ((1, 0), (1, 1)), ((1, 1), (1, 0)), ((1, 2), (1, 3)), ((1, 3), (1, 2)), ((1, 3), (2, 3)), ((2, 3), (1, 3)), ((0, 0), (0, 1)), ((0, 1), (0, 0)), ((0, 1), (1, 1)), ((1, 1), (0, 1)), ((0, 2), (1, 2)), ((1, 2), (0, 2)), ((2, 3), (3, 3)), ((3, 3), (2, 3)), ((3, 2), (3, 3)), ((3, 3), (3, 2)), ((0, 2), (0, 3)), ((0, 3), (0, 2)), ((2, 2), (2, 3)), ((2, 3), (2, 2)), ((1, 1), (1, 2)), ((1, 2), (1, 1)), ((3, 0), (3, 1)), ((3, 1), (3, 0))]",6,3,1.2686
003,1,7,"(3, 2)","(0, 1)",18,3,3,"[((1, 0), (2, 0)), ((2, 0), (1, 0)), ((0, 3), (1, 3)), ((1, 3), (0, 3)), ((1, 1), (1, 2)), ((1, 2), (1, 1)), ((2, 2), (3, 2)), ((3, 2), (2, 2)), ((1, 3), (2, 3)), ((2, 3), (1, 3)), ((1, 0), (1, 1)), ((1, 1), (1, 0)), ((0, 1), (1, 1)), ((1, 1), (0, 1)), ((3, 0), (3, 1)), ((3, 1), (3, 0)), ((0, 2), (0, 3)), ((0, 3), (0, 2)), ((1, 2), (2, 2)), ((2, 2), (1, 2)), ((2, 1), (2, 2)), ((2, 2), (2, 1)), ((2, 0), (2, 1)), ((2, 1), (2, 0)), ((2, 1), (3, 1)), ((3, 1), (2, 1)), ((1, 2), (1, 3)), ((1, 3), (1, 2)), ((0, 0), (1, 0)), ((1, 0), (0, 0)), ((3, 2), (3, 3)), ((3, 3), (3, 2)), ((2, 0), (3, 0)), ((3, 0), (2, 0)), ((2, 3), (3, 3)), ((3, 3), (2, 3))]",6,4,1.5688
003,1,8,"(2, 0)","(1, 3)",18,3,3,"[((0, 0), (1, 0)), ((1, 0), (0, 0)), ((1, 1), (1, 2)), ((1, 2), (1, 1)), ((0, 2), (0, 3)), ((0, 3), (0, 2)), ((0, 3), (1, 3)), ((1, 3), (0, 3)), ((2, 3), (3, 3)), ((3, 3), (2, 3)), ((3, 2), (3, 3)), ((3, 3), (3, 2)), ((1, 3), (2, 3)), ((2, 3), (1, 3)), ((2, 0), (2, 1)), ((2, 1), (2, 0)), ((3, 0), (3, 1)), ((3, 1), (3, 0)), ((0, 1), (0, 2)), ((0, 2), (0, 1)), ((0, 2), (1, 2)), ((1, 2), (0, 2)), ((2, 1), (3, 1)), ((3, 1), (2, 1)), ((0, 0), (0, 1)), ((0, 1), (0, 0)), ((3, 1), (3, 2)), ((3, 2), (3, 1)), ((2, 0), (3, 0)), ((3, 0), (2, 0)), ((0, 1), (1, 1)), ((1, 1), (0, 1)), ((1, 2), (1, 3)), ((1, 3), (1, 2)), ((2, 2), (2, 3)), ((2, 3), (2, 2))]",2,2,1.1864
003,1,9,"(1, 0)","(2, 3)",17,2,3,"[((0, 1), (0, 2)), ((0, 2), (0, 1)), ((1, 2), (2, 2)), ((2, 2), (1, 2)), ((1, 0), (1, 1)), ((1, 1), (1, 0)), ((2, 2), (3, 2)), ((3, 2), (2, 2)), ((3, 1), (3, 2)), ((3, 2), (3, 1)), ((0, 2), (1, 2)), ((1, 2), (0, 2)), ((1, 1), (2, 1)), ((2, 1), (1, 1)), ((1, 3), (2, 3)), ((2, 3), (1, 3)), ((2, 1), (3, 1)), ((3, 1), (2, 1)), ((0, 3), (1, 3)), ((1, 3), (0, 3)), ((0, 1), (1, 1)), ((1, 1), (0, 1)), ((2, 0), (3, 0)), ((3, 0), (2, 0)), ((2, 3), (3, 3)), ((3, 3), (2, 3)), ((0, 0), (1, 0)), ((1, 0), (0, 0)), ((2, 2), (2, 3)), ((2, 3), (2, 2)), ((1, 0), (2, 0)), ((2, 0), (1, 0)), ((1, 1), (1, 2)), ((1, 2), (1, 1))]",5,4,1.5034
003,1,10,"(2, 3)","(1, 0)",17,2,3,"[((0, 2), (1, 2)), ((1, 2), (0, 2)), ((0, 1), (1, 1)), ((1, 1), (0, 1)), ((1, 2), (1, 3)), ((1, 3), (1, 2)), ((1, 2), (2, 2)), ((2, 2), (1, 2)), ((1, 3), (2, 3)), ((2, 3), (1, 3)), ((0, 0), (0, 1)), ((0, 1), (0, 0)), ((2, 0), (3, 0)), ((3, 0), (2, 0)), ((3, 0), (3, 1)), ((3, 1), (3, 0)), ((3, 2), (3, 3)), ((3, 3), (3, 2)), ((3, 1), (3, 2)), ((3, 2), (3, 1)), ((0, 2), (0, 3)), ((0, 3), (0, 2)), ((0, 3), (1, 3)), ((1, 3), (0, 3)), ((2, 0), (2, 1)), ((2, 1), (2, 0)), ((2, 3), (3, 3)), ((3, 3), (2, 3)), ((1, 0), (2, 0)), ((2, 0), (1, 0)), ((1, 1), (1, 2)), ((1, 2), (1, 1)), ((1, 0), (1, 1)), ((1, 1), (1, 0))]",3,2,1.1187
003,1,11,"(1, 0)","(2, 3)",17,2,3,"[((0, 0), (0, 1)), ((0, 1), (0, 0)), ((3, 1), (3, 2)), ((3, 2), (3, 1)), ((3, 0), (3, 1)), ((3, 1), (3, 0)), ((0, 2), (0, 3)), ((0, 3), (0, 2)), ((2, 0), (2, 1)), ((2, 1), (2, 0)), ((1, 0), (1, 1)), ((1, 1), (1, 0)), ((0, 0), (1, 0)), ((1, 0), (0, 0)), ((2, 1), (2, 2)), ((2, 2), (2, 1)), ((1, 2), (2, 2)), ((2, 2), (1, 2)), ((1, 1), (2, 1)), ((2, 1), (1, 1)), ((0, 1), (1, 1)), ((1, 1), (0, 1)), ((2, 2), (2, 3)), ((2, 3), (2, 2)), ((2, 3), (3, 3)), ((3, 3), (2, 3)), ((1, 2), (1, 3)), ((1, 3), (1, 2)), ((3, 2), (3, 3)), ((3, 3), (3, 2)), ((2, 1), (3, 1)), ((3, 1), (2, 1)), ((0, 2), (1, 2)), ((1, 2), (0, 2))]",4,2,1.6063
003,1,12,"(1, 3)","(2, 0)",15,0,3,"[((0, 1), (0, 2)), ((0, 2), (0, 1)), ((0, 2), (1, 2)), ((1, 2), (0, 2)), ((3, 0), (3, 1)), ((3, 1), (3, 0)), ((0, 2), (0, 3)), ((0, 3), (0, 2)), ((2, 1), (2, 2)), ((2, 2), (2, 1)), ((1, 0), (2, 0)), ((2, 0), (1, 0)), ((1, 3), (2, 3)), ((2, 3), (1, 3)), ((1, 2), (1, 3)), ((1, 3), (1, 2)), ((2, 1), (3, 1)), ((3, 1), (2, 1)), ((1, 1), (1, 2)), ((1, 2), (1, 1)), ((2, 2), (3, 2)), ((3, 2), (2, 2)), ((2, 3), (3, 3)), ((3, 3), (2, 3)), ((1, 1), (2, 1)), ((2, 1), (1, 1)), ((2, 0), (2, 1)), ((2, 1), (2, 0)), ((0, 0), (0, 1)), ((0, 1), (0, 0))]",1,1,1.1147
003,1,13,"(2, 3)","(1, 0)",18,3,3,"[((0, 3), (1, 3)), ((1, 3), (0, 3)), ((0, 2), (0, 3)), ((0, 3), (0, 2)), ((1, 0), (2, 0)), ((2, 0), (1, 0)), ((3, 0), (3, 1)), ((3, 1), (3, 0)), ((1, 3), (2, 3)), ((2, 3), (1, 3)), ((0, 0), (0, 1)), ((0, 1), (0, 0)), ((2, 2), (3, 2)), ((3, 2), (2, 2)), ((1, 2), (2, 2)), ((2, 2), (1, 2)), ((3, 2), (3, 3)), ((3, 3), (3, 2)), ((1, 1), (1, 2)), ((1, 2), (1, 1)), ((3, 1), (3, 2)), ((3, 2), (3, 1)), ((2, 0), (3, 0)), ((3, 0), (2, 0)), ((2, 3), (3, 3)), ((3, 3), (2, 3)), ((2, 0), (2, 1)), ((2, 1), (2, 0)), ((1, 1), (2, 1)), ((2, 1), (1, 1)), ((2, 1), (2, 2)), ((2, 2), (2, 1)), ((1, 2), (1, 3)), ((1, 3), (1, 2)), ((0, 0), (1, 0)), ((1, 0), (0, 0))]",7,5,1.2707
003,1,14,"(2, 0)","(1, 3)",18,3,3,"[((1, 2), (1, 3)), ((1, 3), (1, 2)), ((2, 0), (3, 0)), ((3, 0), (2, 0)), ((3, 2), (3, 3)), ((3, 3), (3, 2)), ((2, 2), (2, 3)), ((2, 3), (2, 2)), ((1, 1), (1, 2)), ((1, 2), (1, 1)), ((1, 3), (2, 3)), ((2, 3), (1, 3)), ((2, 0), (2, 1)), ((2, 1), (2, 0)), ((0, 0), (1, 0)), ((1, 0), (0, 0)), ((2, 1), (2, 2)), ((2, 2), (2, 1)), ((0, 0), (0, 1)), ((0, 1), (0, 0)), ((1, 1), (2, 1)), ((2, 1), (1, 1)), ((0, 3), (1, 3)), ((1, 3), (0, 3)), ((0, 2), (1, 2)), ((1, 2), (0, 2)), ((2, 2), (3, 2)), ((3, 2), (2, 2)), ((3, 1), (3, 2)), ((3, 2), (3, 1)), ((2, 3), (3, 3)), ((3, 3), (2, 3)), ((0, 1), (1, 1)), ((1, 1), (0, 1)), ((3, 0), (3, 1)), ((3, 1), (3, 0))]",7,6,1.2802
003,1,15,"(0, 2)","(3, 1)",17,2,3,"[((1, 0), (1, 1)), ((1, 1), (1, 0)), ((1, 1), (2, 1)), ((2, 1), (1, 1)), ((0, 2), (1, 2)), ((1, 2), (0, 2)), ((2, 2), (3, 2)), ((3, 2), (2, 2)), ((2, 0), (3, 0)), ((3, 0), (2, 0)), ((0, 2), (0, 3)), ((0, 3), (0, 2)), ((1, 1), (1, 2)), ((1, 2), (1, 1)), ((2, 3), (3, 3)), ((3, 3), (2, 3)), ((2, 1), (3, 1)), ((3, 1), (2, 1)), ((1, 2), (2, 2)), ((2, 2), (1, 2)), ((0, 0), (1, 0)), ((1, 0), (0, 0)), ((1, 2), (1, 3)), ((1, 3), (1, 2)), ((3, 1), (3, 2)), ((3, 2), (3, 1)), ((2, 0), (2, 1)), ((2, 1), (2, 0)), ((1, 3), (2, 3)), ((2, 3), (1, 3)), ((2, 2), (2, 3)), ((2, 3), (2, 2)), ((0, 1), (1, 1)), ((1, 1), (0, 1))]",5,3,1.4546
003,1,16,"(1, 0)","(2, 3)",15,0,3,"[((0, 2), (0, 3)), ((0, 3), (0, 2)), ((2, 2), (3, 2)), ((3, 2), (2, 2)), ((1, 2), (1, 3)), ((1, 3), (1, 2)), ((1, 0), (1, 1)), ((1, 1), (1, 0)), ((2, 0), (3, 0)), ((3, 0), (2, 0)), ((0, 0), (1, 0)), ((1, 0), (0, 0)), ((1, 0), (2, 0)), ((2, 0), (1, 0)), ((3, 1), (3, 2)), ((3, 2), (3, 1)), ((2, 3), (3, 3)), ((3, 3), (2, 3)), ((0, 1), (0, 2)), ((0, 2), (0, 1)), ((1, 3), (2, 3)), ((2, 3), (1, 3)), ((0, 2), (1, 2)), ((1, 2), (0, 2)), ((3, 2), (3, 3)), ((3, 3), (3, 2)), ((2, 1), (3, 1)), ((3, 1), (2, 1)), ((1, 1), (1, 2)), ((1, 2), (1, 1))]",1,1,1.0702
003,1,17,"(2, 3)","(1, 0)",18,3,3,"[((1, 1), (2, 1)), ((2, 1), (1, 1)), ((2, 0), (3, 0)), ((3, 0), (2, 0)), ((1, 1), (1, 2)), ((1, 2), (1, 1)), ((0, 2), (0, 3)), ((0, 3), (0, 2)), ((0, 1), (0, 2)), ((0, 2), (0, 1)), ((0, 0), (1, 0)), ((1, 0), (0, 0)), ((2, 1), (3, 1)), ((3, 1), (2, 1)), ((0, 1), (1, 1)), ((1, 1), (0, 1)), ((1, 0), (2, 0)), ((2, 0), (1, 0)), ((0, 3), (1, 3)), ((1, 3), (0, 3)), ((0, 0), (0, 1)), ((0, 1), (0, 0)), ((1, 2), (2, 2)), ((2, 2), (1, 2)), ((3, 2), (3, 3)), ((3, 3), (3, 2)), ((2, 1), (2, 2)), ((2, 2), (2, 1)), ((3, 1), (3, 2)), ((3, 2), (3, 1)), ((2, 3), (3, 3)), ((3, 3), (2, 3)), ((3, 0), (3, 1)), ((3, 1), (3, 0)), ((1, 2), (1, 3)), ((1, 3), (1, 2))]",5,4,1.1243
003,1,18,"(1, 3)","(2, 0)",18,3,3,"[((2, 1), (3, 1)), ((3, 1), (2, 1)), ((1, 1), (1, 2)), ((1, 2), (1, 1)), ((0, 3), (1, 3)), ((1, 3), (0, 3)), ((1, 0), (2, 0)), ((2, 0), (1, 0)), ((3, 0), (3, 1)), ((3, 1), (3, 0)), ((0, 0), (0, 1)), ((0, 1), (0, 0)), ((3, 1), (3, 2)), ((3, 2), (3, 1)), ((2, 2), (2, 3)), ((2, 3), (2, 2)), ((2, 3), (3, 3)), ((3, 3), (2, 3)), ((1, 0), (1, 1)), ((1, 1), (1, 0)), ((1, 1), (2, 1)), ((2, 1), (1, 1)), ((3, 2), (3, 3)), ((3, 3), (3, 2)), ((1, 2), (1, 3)), ((1, 3), (1, 2)), ((2, 0), (3, 0)), ((3, 0), (2, 0)), ((1, 2), (2, 2)), ((2, 2), (1, 2)), ((0, 1), (0, 2)), ((0, 2), (0, 1)), ((0, 2), (1, 2)), ((1, 2), (0, 2)), ((2, 2), (3, 2)), ((3, 2), (2, 2))]",6,6,1.2198
003,1,19,"(0, 1)","(3, 2)",17,2,3,"[((0, 3), (1, 3)), ((1, 3), (0, 3)), ((1, 2), (2, 2)), ((2, 2), (1, 2)), ((2, 2), (3, 2)), ((3, 2), (2, 2)), ((0, 0), (1, 0)), ((1, 0), (0, 0)), ((2, 2), (2, 3)), ((2, 3), (2, 2)), ((0, 0), (0, 1)), ((0, 1), (0, 0)), ((2, 1), (2, 2)), ((2, 2), (2, 1)), ((0, 2), (1, 2)), ((1, 2), (0, 2)), ((1, 3), (2, 3)), ((2, 3), (1, 3)), ((1, 0), (1, 1)), ((1, 1), (1, 0)), ((2, 1), (3, 1)), ((3, 1), (2, 1)), ((1, 1), (2, 1)), ((2, 1), (1, 1)), ((2, 3), (3, 3)), ((3, 3), (2, 3)), ((0, 2), (0, 3)), ((0, 3), (0, 2)), ((0, 1), (1, 1)), ((1, 1), (0, 1)), ((3, 0), (3, 1)), ((3, 1), (3, 0)), ((2, 0), (3, 0)), ((3, 0), (2, 0))]",6,2,1.7531
003,1,20,"(0, 2)","(3, 1)",17,2,3,"[((0, 3), (1, 3)), ((1, 3), (0, 3)), ((2, 1), (3, 1)), ((3, 1), (2, 1)), ((1, 2), (2, 2)), ((2, 2), (1, 2)), ((2, 2), (2, 3)), ((2, 3), (2, 2)), ((3, 0), (3, 1)), ((3, 1), (3, 0)), ((2, 2), (3, 2)), ((3, 2), (2, 2)), ((1, 0), (2, 0)), ((2, 0), (1, 0)), ((2, 3), (3, 3)), ((3, 3), (2, 3)), ((2, 0), (3, 0)), ((3, 0), (2, 0)), ((1, 0), (1, 1)), ((1, 1), (1, 0)), ((0, 1), (1, 1)), ((1, 1), (0, 1)), ((3, 1), (3, 2)), ((3, 2), (3, 1)), ((0, 0), (0, 1)), ((0, 1), (0, 0)), ((0, 2), (0, 3)), ((0, 3), (0, 2)), ((0, 2), (1, 2)), ((1, 2), (0, 2)), ((1, 3), (2, 3)), ((2, 3), (1, 3)), ((0, 0), (1, 0)), ((1, 0), (0, 0))]",2,2,1.2232
003,1,21,"(3, 1)","(0, 2)",18,3,3,"[((1, 2), (2, 2)), ((2, 2), (1, 2)), ((2, 2), (2, 3)), ((2, 3), (2, 2)), ((0, 3), (1, 3)), ((1, 3), (0, 3)), ((3, 1), (3, 2)), ((3, 2), (3, 1)), ((1, 1), (1, 2)), ((1, 2), (1, 1)), ((0, 0), (0, 1)), ((0, 1), (0, 0)), ((1, 1), (2, 1)), ((2, 1), (1, 1)), ((1, 2), (1, 3)), ((1, 3), (1, 2)), ((1, 0), (2, 0)), ((2, 0), (1, 0)), ((0, 2), (1, 2)), ((1, 2), (0, 2)), ((2, 1), (2, 2)), ((2, 2), (2, 1)), ((2, 0), (3, 0)), ((3, 0), (2, 0)), ((0, 0), (1, 0)), ((1, 0), (0, 0)), ((2, 3), (3, 3)), ((3, 3), (2, 3)), ((1, 0), (1, 1)), ((1, 1), (1, 0)), ((2, 0), (2, 1)), ((2, 1), (2, 0)), ((0, 1), (0, 2)), ((0, 2), (0, 1)), ((3, 2), (3, 3)), ((3, 3), (3, 2))]",7,4,1.1036
003,1,22,"(3, 2)","(0, 1)",15,0,3,"[((1, 0), (2, 0)), ((2, 0), (1, 0)), ((0, 3), (1, 3)), ((1, 3), (0, 3)), ((2, 3), (3, 3)), ((3, 3), (2, 3)), ((1, 0), (1, 1)), ((1, 1), (1, 0)), ((2, 2), (2, 3)), ((2, 3), (2, 2)), ((0, 2), (0, 3)), ((0, 3), (0, 2)), ((3, 0), (3, 1)), ((3, 1), (3, 0)), ((2, 1), (3, 1)), ((3, 1), (2, 1)), ((0, 0), (0, 1)), ((0, 1), (0, 0)), ((0, 1), (1, 1)), ((1, 1), (0, 1)), ((0, 2), (1, 2)), ((1, 2), (0, 2)), ((2, 0), (2, 1)), ((2, 1), (2, 0)), ((3, 1), (3, 2)), ((3, 2), (3, 1)), ((2, 2), (3, 2)), ((3, 2), (2, 2)), ((1, 3), (2, 3)), ((2, 3), (1, 3))]",1,1,1.1029
003,1,23,"(1, 0)","(2, 3)",18,3,3,"[((0, 0), (1, 0)), ((1, 0), (0, 0)), ((2, 2), (3, 2)), ((3, 2), (2, 2)), ((2, 2), (2, 3)), ((2, 3), (2, 2)), ((1, 2), (1, 3)), ((1, 3), (1, 2)), ((2, 3), (3, 3)), ((3, 3), (2, 3)), ((0, 2), (1, 2)), ((1, 2), (0, 2)), ((2, 0), (3, 0)), ((3, 0), (2, 0)), ((3, 2), (3, 3)), ((3, 3), (3, 2)), ((2, 1), (2, 2)), ((2, 2), (2, 1)), ((3, 1), (3, 2)), ((3, 2), (3, 1)), ((2, 0), (2, 1)), ((2, 1), (2, 0)), ((1, 2), (2, 2)), ((2, 2), (1, 2)), ((0, 2), (0, 3)), ((0, 3), (0, 2)), ((0, 1), (0, 2)), ((0, 2), (0, 1)), ((1, 0), (2, 0)), ((2, 0), (1, 0)), ((0, 1), (1, 1)), ((1, 1), (0, 1)), ((1, 1), (1, 2)), ((1, 2), (1, 1)), ((3, 0), (3, 1)), ((3, 1), (3, 0))]",4,3,1.0708
003,1,24,"(0, 1)","(3, 2)",16,1,3,"[((1, 2), (2, 2)), ((2, 2), (1, 2)), ((2, 1), (3, 1)), ((3, 1), (2, 1)), ((1, 2), (1, 3)), ((1, 3), (1, 2)), ((1, 3), (2, 3)), ((2, 3), (1, 3)), ((0, 2), (0, 3)), ((0, 3), (0, 2)), ((0, 0), (1, 0)), ((1, 0), (0, 0)), ((2, 0), (3, 0)), ((3, 0), (2, 0)), ((1, 0), (1, 1)), ((1, 1), (1, 0)), ((3, 0), (3, 1)), ((3, 1), (3, 0)), ((0, 2), (1, 2)), ((1, 2), (0, 2)), ((3, 2), (3, 3)), ((3, 3), (3, 2)), ((0, 0), (0, 1)), ((0, 1), (0, 0)), ((2, 3), (3, 3)), ((3, 3), (2, 3)), ((2, 1), (2, 2)), ((2, 2), (2, 1)), ((1, 0), (2, 0)), ((2, 0), (1, 0)), ((1, 1), (2, 1)), ((2, 1), (1, 1))]",2,2,1.0528
003,1,25,"(0, 2)","(3, 1)",15,0,3,"[((2, 3), (3, 3)), ((3, 3), (2, 3)), ((1, 2), (2, 2)), ((2, 2), (1, 2)), ((0, 2), (0, 3)), ((0, 3), (0, 2)), ((2, 0), (3, 0)), ((3, 0), (2, 0)), ((0, 0), (1, 0)), ((1, 0), (0, 0)), ((2, 2), (3, 2)), ((3, 2), (2, 2)), ((1, 2), (1, 3)), ((1, 3), (1, 2)), ((1, 1), (2, 1)), ((2, 1), (1, 1)), ((1, 1), (1, 2)), ((1, 2), (1, 1)), ((2, 0), (2, 1)), ((2, 1), (2, 0)), ((2, 2), (2, 3)), ((2, 3), (2, 2)), ((0, 1), (0, 2)), ((0, 2), (0, 1)), ((0, 3), (1, 3)), ((1, 3), (0, 3)), ((1, 0), (1, 1)), ((1, 1), (1, 0)), ((2, 1), (3, 1)), ((3, 1), (2, 1))]",1,1,1.0548
003,1,26,"(2, 3)","(1, 0)",16,1,3,"[((2, 2), (3, 2)), ((3, 2), (2, 2)), ((2, 0), (3, 0)), ((3, 0), (2, 0)), ((1, 2), (1, 3)), ((1, 3), (1, 2)), ((1, 0), (2, 0)), ((2, 0), (1, 0)), ((2, 1), (3, 1)), ((3, 1), (2, 1)), ((0, 0), (0, 1)), ((0, 1), (0, 0)), ((2, 1), (2, 2)), ((2, 2), (2, 1)), ((1, 3), (2, 3)), ((2, 3), (1, 3)), ((2, 0), (2, 1)), ((2, 1), (2, 0)), ((2, 2), (2, 3)), ((2, 3), (2, 2)), ((0, 1), (0, 2)), ((0, 2), (0, 1)), ((3, 1), (3, 2)), ((3, 2), (3, 1)), ((0, 2), (0, 3)), ((0, 3), (0, 2)), ((0, 1), (1, 1)), ((1, 1), (0, 1)), ((0, 3), (1, 3)), ((1, 3), (0, 3)), ((3, 2), (3, 3)), ((3, 3), (3, 2))]",2,2,1.1855
003,1,27,"(1, 0)","(2, 3)",17,2,3,"[((2, 1), (3, 1)), ((3, 1), (2, 1)), ((2, 3), (3, 3)), ((3, 3), (2, 3)), ((1, 0), (2, 0)), ((2, 0), (1, 0)), ((3, 2), (3, 3)), ((3, 3), (3, 2)), ((1, 2), (2, 2)), ((2, 2), (1, 2)), ((0, 1), (0, 2)), ((0, 2), (0, 1)), ((1, 1), (1, 2)), ((1, 2), (1, 1)), ((3, 0), (3, 1)), ((3, 1), (3, 0)), ((0, 0), (1, 0)), ((1, 0), (0, 0)), ((3, 1), (3, 2)), ((3, 2), (3, 1)), ((0, 3), (1, 3)), ((1, 3), (0, 3)), ((1, 2), (1, 3)), ((1, 3), (1, 2)), ((0, 0), (0, 1)), ((0, 1), (0, 0)), ((0, 2), (0, 3)), ((0, 3), (0, 2)), ((2, 2), (2, 3)), ((2, 3), (2, 2)), ((0, 1), (1, 1)), ((1, 1), (0, 1)), ((2, 1), (2, 2)), ((2, 2), (2, 1))]",4,3,1.1723
003,1,28,"(0, 2)","(3, 1)",17,2,3,"[((0, 1), (1, 1)), ((1, 1), (0, 1)), ((2, 0), (3, 0)), ((3, 0), (2, 0)), ((1, 1), (2, 1)), ((2, 1), (1, 1)), ((1, 3), (2, 3)), ((2, 3), (1, 3)), ((1, 1), (1, 2)), ((1, 2), (1, 1)), ((1, 2), (1, 3)), ((1, 3), (1, 2)), ((1, 0), (2, 0)), ((2, 0), (1, 0)), ((0, 3), (1, 3)), ((1, 3), (0, 3)), ((2, 2), (3, 2)), ((3, 2), (2, 2)), ((2, 1), (3, 1)), ((3, 1), (2, 1)), ((2, 2), (2, 3)), ((2, 3), (2, 2)), ((0, 1), (0, 2)), ((0, 2), (0, 1)), ((2, 3), (3, 3)), ((3, 3), (2, 3)), ((2, 0), (2, 1)), ((2, 1), (2, 0)), ((1, 2), (2, 2)), ((2, 2), (1, 2)), ((0, 0), (0, 1)), ((0, 1), (0, 0)), ((3, 0), (3, 1)), ((3, 1), (3, 0))]",2,1,1.303
003,1,29,"(1, 3)","(2, 0)",17,2,3,"[((2, 2), (3, 2)), ((3, 2), (2, 2)), ((1, 2), (1, 3)), ((1, 3), (1, 2)), ((0, 1), (1, 1)), ((1, 1), (0, 1)), ((3, 2), (3, 3)), ((3, 3), (3, 2)), ((0, 3), (1, 3)), ((1, 3), (0, 3)), ((2, 1), (2, 2)), ((2, 2), (2, 1)), ((3, 1), (3, 2)), ((3, 2), (3, 1)), ((1, 3), (2, 3)), ((2, 3), (1, 3)), ((2, 0), (2, 1)), ((2, 1), (2, 0)), ((0, 0), (0, 1)), ((0, 1), (0, 0)), ((2, 3), (3, 3)), ((3, 3), (2, 3)), ((0, 0), (1, 0)), ((1, 0), (0, 0)), ((1, 1), (2, 1)), ((2, 1), (1, 1)), ((0, 2), (0, 3)), ((0, 3), (0, 2)), ((1, 2), (2, 2)), ((2, 2), (1, 2)), ((0, 1), (0, 2)), ((0, 2), (0, 1)), ((3, 0), (3, 1)), ((3, 1), (3, 0))]",5,3,0.9381
003,1,30,"(2, 3)","(1, 0)",18,3,3,"[((0, 2), (1, 2)), ((1, 2), (0, 2)), ((0, 0), (0, 1)), ((0, 1), (0, 0)), ((0, 3), (1, 3)), ((1, 3), (0, 3)), ((1, 2), (2, 2)), ((2, 2), (1, 2)), ((2, 0), (2, 1)), ((2, 1), (2, 0)), ((3, 1), (3, 2)), ((3, 2), (3, 1)), ((3, 2), (3, 3)), ((3, 3), (3, 2)), ((1, 0), (1, 1)), ((1, 1), (1, 0)), ((2, 3), (3, 3)), ((3, 3), (2, 3)), ((0, 2), (0, 3)), ((0, 3), (0, 2)), ((0, 1), (0, 2)), ((0, 2), (0, 1)), ((2, 2), (3, 2)), ((3, 2), (2, 2)), ((1, 2), (1, 3)), ((1, 3), (1, 2)), ((2, 1), (2, 2)), ((2, 2), (2, 1)), ((1, 3), (2, 3)), ((2, 3), (1, 3)), ((2, 0), (3, 0)), ((3, 0), (2, 0)), ((3, 0), (3, 1)), ((3, 1), (3, 0)), ((1, 1), (2, 1)), ((2, 1), (1, 1))]",6,4,1.2903
003,1,31,"(2, 3)","(1, 0)",18,3,3,"[((2, 0), (3, 0)), ((3, 0), (2, 0)), ((2, 2), (3, 2)), ((3, 2), (2, 2)), ((2, 1), (3, 1)), ((3, 1), (2, 1)), ((0, 1), (1, 1)), ((1, 1), (0, 1)), ((3, 2), (3, 3)), ((3, 3), (3, 2)), ((1, 1), (2, 1)), ((2, 1), (1, 1)), ((3, 1), (3, 2)), ((3, 2), (3, 1)), ((1, 2), (1, 3)), ((1, 3), (1, 2)), ((1, 3), (2, 3)), ((2, 3), (1, 3)), ((0, 0), (0, 1)), ((0, 1), (0, 0)), ((3, 0), (3, 1)), ((3, 1), (3, 0)), ((0, 2), (1, 2)), ((1, 2), (0, 2)), ((2, 2), (2, 3)), ((2, 3), (2, 2)), ((1, 1), (1, 2)), ((1, 2), (1, 1)), ((0, 3), (1, 3)), ((1, 3), (0, 3)), ((0, 1), (0, 2)), ((0, 2), (0, 1)), ((0, 2), (0, 3)), ((0, 3), (0, 2)), ((0, 0), (1, 0)), ((1, 0), (0, 0))]",7,4,1.2733
003,1,32,"(1, 3)","(2, 0)",17,2,3,"[((0, 1), (0, 2)), ((0, 2), (0, 1)), ((3, 0), (3, 1)), ((3, 1), (3, 0)), ((1, 2), (1, 3)), ((1, 3), (1, 2)), ((0, 0), (1, 0)), ((1, 0), (0, 0)), ((2, 2), (3, 2)), ((3, 2), (2, 2)), ((0, 0), (0, 1)), ((0, 1), (0, 0)), ((1, 2), (2, 2)), ((2, 2), (1, 2)), ((2, 0), (3, 0)), ((3, 0), (2, 0)), ((0, 3), (1, 3)), ((1, 3), (0, 3)), ((2, 1), (2, 2)), ((2, 2), (2, 1)), ((2, 0), (2, 1)), ((2, 1), (2, 0)), ((1, 0), (2, 0)), ((2, 0), (1, 0)), ((3, 1), (3, 2)), ((3, 2), (3, 1)), ((0, 2), (1, 2)), ((1, 2), (0, 2)), ((3, 2), (3, 3)), ((3, 3), (3, 2)), ((1, 3), (2, 3)), ((2, 3), (1, 3)), ((1, 1), (1, 2)), ((1, 2), (1, 1))]",3,3,1.1373
003,1,33,"(0, 2)","(3, 1)",18,3,3,"[((3, 0), (3, 1)), ((3, 1), (3, 0)), ((1, 2), (2, 2)), ((2, 2), (1, 2)), ((0, 2), (0, 3)), ((0, 3), (0, 2)), ((2, 3), (3, 3)), ((3, 3), (2, 3)), ((0, 0), (1, 0)), ((1, 0), (0, 0)), ((0, 2), (1, 2)), ((1, 2), (0, 2)), ((1, 1), (1, 2)), ((1, 2), (1, 1)), ((0, 1), (1, 1)), ((1, 1), (0, 1)), ((2, 0), (3, 0)), ((3, 0), (2, 0)), ((1, 3), (2, 3)), ((2, 3), (1, 3)), ((0, 1), (0, 2)), ((0, 2), (0, 1)), ((2, 1), (2, 2)), ((2, 2), (2, 1)), ((3, 2), (3, 3)), ((3, 3), (3, 2)), ((0, 0), (0, 1)), ((0, 1), (0, 0)), ((0, 3), (1, 3)), ((1, 3), (0, 3)), ((2, 0), (2, 1)), ((2, 1), (2, 0)), ((1, 0), (2, 0)), ((2, 0), (1, 0)), ((1, 0), (1, 1)), ((1, 1), (1, 0))]",7,4,1.214
003,1,34,"(0, 2)","(3, 1)",17,2,3,"[((3, 1), (3, 2)), ((3, 2), (3, 1)), ((0, 2), (0, 3)), ((0, 3), (0, 2)), ((1, 1), (1, 2)), ((1, 2), (1, 1)), ((1, 2), (1, 3)), ((1, 3), (1, 2)), ((1, 2), (2, 2)), ((2, 2), (1, 2)), ((0, 3), (1, 3)), ((1, 3), (0, 3)), ((1, 1), (2, 1)), ((2, 1), (1, 1)), ((1, 0), (1, 1)), ((1, 1), (1, 0)), ((0, 1), (1, 1)), ((1, 1), (0, 1)), ((2, 3), (3, 3)), ((3, 3), (2, 3)), ((1, 0), (2, 0)), ((2, 0), (1, 0)), ((2, 2), (3, 2)), ((3, 2), (2, 2)), ((0, 2), (1, 2)), ((1, 2), (0, 2)), ((2, 1), (2, 2)), ((2, 2), (2, 1)), ((0, 0), (0, 1)), ((0, 1), (0, 0)), ((3, 0), (3, 1)), ((3, 1), (3, 0)), ((3, 2), (3, 3)), ((3, 3), (3, 2))]",4,5,1.1519
003,1,35,"(2, 3)","(1, 0)",17,2,3,"[((0, 2), (1, 2)), ((1, 2), (0, 2)), ((1, 0), (1, 1)), ((1, 1), (1, 0)), ((1, 2), (1, 3)), ((1, 3), (1, 2)), ((0, 2), (0, 3)), ((0, 3), (0, 2)), ((0, 1), (1, 1)), ((1, 1), (0, 1)), ((0, 0), (0, 1)), ((0, 1), (0, 0)), ((3, 2), (3, 3)), ((3, 3), (3, 2)), ((2, 0), (3, 0)), ((3, 0), (2, 0)), ((3, 1), (3, 2)), ((3, 2), (3, 1)), ((1, 0), (2, 0)), ((2, 0), (1, 0)), ((0, 1), (0, 2)), ((0, 2), (0, 1)), ((2, 0), (2, 1)), ((2, 1), (2, 0)), ((0, 0), (1, 0)), ((1, 0), (0, 0)), ((2, 1), (3, 1)), ((3, 1), (2, 1)), ((2, 2), (2, 3)), ((2, 3), (2, 2)), ((1, 3), (2, 3)), ((2, 3), (1, 3)), ((2, 2), (3, 2)), ((3, 2), (2, 2))]",3,3,1.4024
003,1,36,"(0, 1)","(3, 2)",15,0,3,"[((1, 3), (2, 3)), ((2, 3), (1, 3)), ((0, 2), (0, 3)), ((0, 3), (0, 2)), ((0, 0), (0, 1)), ((0, 1), (0, 0)), ((0, 1), (1, 1)), ((1, 1), (0, 1)), ((3, 0), (3, 1)), ((3, 1), (3, 0)), ((1, 1), (2, 1)), ((2, 1), (1, 1)), ((0, 2), (1, 2)), ((1, 2), (0, 2)), ((3, 1), (3, 2)), ((3, 2), (3, 1)), ((2, 0), (2, 1)), ((2, 1), (2, 0)), ((1, 2), (2, 2)), ((2, 2), (1, 2)), ((3, 2), (3, 3)), ((3, 3), (3, 2)), ((1, 0), (2, 0)), ((2, 0), (1, 0)), ((2, 1), (2, 2)), ((2, 2), (2, 1)), ((2, 3), (3, 3)), ((3, 3), (2, 3)), ((2, 1), (3, 1)), ((3, 1), (2, 1))]",1,1,1.0386
003,1,37,"(1, 3)","(2, 0)",16,1,3,"[((3, 2), (3, 3)), ((3, 3), (3, 2)), ((0, 3), (1, 3)), ((1, 3), (0, 3)), ((1, 2), (1, 3)), ((1, 3), (1, 2)), ((2, 1), (3, 1)), ((3, 1), (2, 1)), ((2, 3), (3, 3)), ((3, 3), (2, 3)), ((1, 1), (1, 2)), ((1, 2), (1, 1)), ((1, 3), (2, 3)), ((2, 3), (1, 3)), ((0, 0), (0, 1)), ((0, 1), (0, 0)), ((3, 1), (3, 2)), ((3, 2), (3, 1)), ((0, 2), (1, 2)), ((1, 2), (0, 2)), ((0, 2), (0, 3)), ((0, 3), (0, 2)), ((0, 1), (1, 1)), ((1, 1), (0, 1)), ((1, 0), (1, 1)), ((1, 1), (1, 0)), ((2, 1), (2, 2)), ((2, 2), (2, 1)), ((1, 0), (2, 0)), ((2, 0), (1, 0)), ((3, 0), (3, 1)), ((3, 1), (3, 0))]",2,2,0.9226
003,1,38,"(2, 0)","(1, 3)",17,2,3,"[((0, 3), (1, 3)), ((1, 3), (0, 3)), ((1, 0), (2, 0)), ((2, 0), (1, 0)), ((2, 2), (2, 3)), ((2, 3), (2, 2)), ((3, 1), (3, 2)), ((3, 2), (3, 1)), ((3, 0), (3, 1)), ((3, 1), (3, 0)), ((1, 1), (2, 1)), ((2, 1), (1, 1)), ((0, 1), (1, 1)), ((1, 1), (0, 1)), ((3, 2), (3, 3)), ((3, 3), (3, 2)), ((0, 0), (0, 1)), ((0, 1), (0, 0)), ((2, 2), (3, 2)), ((3, 2), (2, 2)), ((1, 1), (1, 2)), ((1, 2), (1, 1)), ((1, 2), (1, 3)), ((1, 3), (1, 2)), ((0, 2), (1, 2)), ((1, 2), (0, 2)), ((0, 0), (1, 0)), ((1, 0), (0, 0)), ((1, 2), (2, 2)), ((2, 2), (1, 2)), ((1, 3), (2, 3)), ((2, 3), (1, 3)), ((1, 0), (1, 1)), ((1, 1), (1, 0))]",4,2,1.0382
003,1,39,"(0, 2)","(3, 1)",18,3,3,"[((1, 1), (1, 2)), ((1, 2), (1, 1)), ((0, 1), (0, 2)), ((0, 2), (0, 1)), ((0, 3), (1, 3)), ((1, 3), (0, 3)), ((1, 2), (2, 2)), ((2, 2), (1, 2)), ((3, 1), (3, 2)), ((3, 2), (3, 1)), ((0, 0), (1, 0)), ((1, 0), (0, 0)), ((2, 3), (3, 3)), ((3, 3), (2, 3)), ((2, 0), (2, 1)), ((2, 1), (2, 0)), ((1, 2), (1, 3)), ((1, 3), (1, 2)), ((1, 3), (2, 3)), ((2, 3), (1, 3)), ((0, 1), (1, 1)), ((1, 1), (0, 1)), ((1, 1), (2, 1)), ((2, 1), (1, 1)), ((2, 2), (3, 2)), ((3, 2), (2, 2)), ((0, 0), (0, 1)), ((0, 1), (0, 0)), ((0, 2), (0, 3)), ((0, 3), (0, 2)), ((2, 1), (3, 1)), ((3, 1), (2, 1)), ((3, 2), (3, 3)), ((3, 3), (3, 2)), ((2, 0), (3, 0)), ((3, 0), (2, 0))]",7,4,1.0379
003,1,40,"(2, 0)","(1, 3)",17,2,3,"[((3, 1), (3, 2)), ((3, 2), (3, 1)), ((0, 2), (0, 3)), ((0, 3), (0, 2)), ((0, 3), (1, 3)), ((1, 3), (0, 3)), ((3, 2), (3, 3)), ((3, 3), (3, 2)), ((2, 1), (3, 1)), ((3, 1), (2, 1)), ((1, 2), (2, 2)), ((2, 2), (1, 2)), ((2, 2), (2, 3)), ((2, 3), (2, 2)), ((1, 0), (2, 0)), ((2, 0), (1, 0)), ((1, 2), (1, 3)), ((1, 3), (1, 2)), ((2, 0), (3, 0)), ((3, 0), (2, 0)), ((1, 0), (1, 1)), ((1, 1), (1, 0)), ((1, 1), (2, 1)), ((2, 1), (1, 1)), ((2, 3), (3, 3)), ((3, 3), (2, 3)), ((0, 0), (1, 0)), ((1, 0), (0, 0)), ((2, 0), (2, 1)), ((2, 1), (2, 0)), ((1, 1), (1, 2)), ((1, 2), (1, 1)), ((0, 1), (1, 1)), ((1, 1), (0, 1))]",4,4,1.054
003,1,41,"(2, 3)","(1, 0)",17,2,3,"[((2, 2), (3, 2)), ((3, 2), (2, 2)), ((1, 2), (1, 3)), ((1, 3), (1, 2)), ((2, 1), (3, 1)), ((3, 1), (2, 1)), ((3, 2), (3, 3)), ((3, 3), (3, 2)), ((2, 2), (2, 3)), ((2, 3), (2, 2)), ((0, 1), (0, 2)), ((0, 2), (0, 1)), ((3, 0), (3, 1)), ((3, 1), (3, 0)), ((0, 3), (1, 3)), ((1, 3), (0, 3)), ((1, 1), (2, 1)), ((2, 1), (1, 1)), ((1, 0), (2, 0)), ((2, 0), (1, 0)), ((2, 1), (2, 2)), ((2, 2), (2, 1)), ((0, 0), (0, 1)), ((0, 1), (0, 0)), ((0, 2), (0, 3)), ((0, 3), (0, 2)), ((1, 0), (1, 1)), ((1, 1), (1, 0)), ((2, 0), (2, 1)), ((2, 1), (2, 0)), ((0, 0), (1, 0)), ((1, 0), (0, 0)), ((1, 1), (1, 2)), ((1, 2), (1, 1))]",3,4,1.572
003,1,42,"(2, 3)","(1, 0)",15,0,3,"[((1, 0), (2, 0)), ((2, 0), (1, 0)), ((0, 1), (0, 2)), ((0, 2), (0, 1)), ((1, 0), (1, 1)), ((1, 1), (1, 0)), ((3, 1), (3, 2)), ((3, 2), (3, 1)), ((3, 2), (3, 3)), ((3, 3), (3, 2)), ((0, 1), (1, 1)), ((1, 1), (0, 1)), ((2, 1), (3, 1)), ((3, 1), (2, 1)), ((0, 2), (0, 3)), ((0, 3), (0, 2)), ((2, 0), (3, 0)), ((3, 0), (2, 0)), ((2, 3), (3, 3)), ((3, 3), (2, 3)), ((1, 2), (2, 2)), ((2, 2), (1, 2)), ((1, 2), (1, 3)), ((1, 3), (1, 2)), ((1, 3), (2, 3)), ((2, 3), (1, 3)), ((0, 0), (0, 1)), ((0, 1), (0, 0)), ((1, 1), (2, 1)), ((2, 1), (1, 1))]",1,1,0.9545
003,1,43,"(2, 3)","(1, 0)",16,1,3,"[((1, 3), (2, 3)), ((2, 3), (1, 3)), ((0, 0), (1, 0)), ((1, 0), (0, 0)), ((2, 3), (3, 3)), ((3, 3), (2, 3)), ((0, 1), (1, 1)), ((1, 1), (0, 1)), ((0, 1), (0, 2)), ((0, 2), (0, 1)), ((1, 2), (1, 3)), ((1, 3), (1, 2)), ((0, 3), (1, 3)), ((1, 3), (0, 3)), ((1, 1), (2, 1)), ((2, 1), (1, 1)), ((2, 0), (3, 0)), ((3, 0), (2, 0)), ((2, 1), (2, 2)), ((2, 2), (2, 1)), ((0, 2), (1, 2)), ((1, 2), (0, 2)), ((2, 0), (2, 1)), ((2, 1), (2, 0)), ((1, 2), (2, 2)), ((2, 2), (1, 2)), ((3, 1), (3, 2)), ((3, 2), (3, 1)), ((1, 0), (2, 0)), ((2, 0), (1, 0)), ((2, 1), (3, 1)), ((3, 1), (2, 1))]",2,2,0.9542
003,1,44,"(3, 2)","(0, 1)",17,2,3,"[((0, 1), (0, 2)), ((0, 2), (0, 1)), ((2, 1), (2, 2)), ((2, 2), (2, 1)), ((1, 0), (2, 0)), ((2, 0), (1, 0)), ((1, 2), (1, 3)), ((1, 3), (1, 2)), ((0, 2), (1, 2)), ((1, 2), (0, 2)), ((0, 3), (1, 3)), ((1, 3), (0, 3)), ((2, 0), (3, 0)), ((3, 0), (2, 0)), ((0, 2), (0, 3)), ((0, 3), (0, 2)), ((3, 2), (3, 3)), ((3, 3), (3, 2)), ((2, 3), (3, 3)), ((3, 3), (2, 3)), ((3, 0), (3, 1)), ((3, 1), (3, 0)), ((0, 0), (1, 0)), ((1, 0), (0, 0)), ((3, 1), (3, 2)), ((3, 2), (3, 1)), ((2, 1), (3, 1)), ((3, 1), (2, 1)), ((1, 1), (2, 1)), ((2, 1), (1, 1)), ((0, 1), (1, 1)), ((1, 1), (0, 1)), ((1, 2), (2, 2)), ((2, 2), (1, 2))]",3,3,0.9678
003,1,45,"(1, 3)","(2, 0)",17,2,3,"[((3, 1), (3, 2)), ((3, 2), (3, 1)), ((0, 1), (0, 2)), ((0, 2), (0, 1)), ((1, 0), (1, 1)), ((1, 1), (1, 0)), ((1, 3), (2, 3)), ((2, 3), (1, 3)), ((3, 0), (3, 1)), ((3, 1), (3, 0)), ((2, 2), (2, 3)), ((2, 3), (2, 2)), ((0, 0), (1, 0)), ((1, 0), (0, 0)), ((0, 2), (0, 3)), ((0, 3), (0, 2)), ((0, 2), (1, 2)), ((1, 2), (0, 2)), ((1, 2), (1, 3)), ((1, 3), (1, 2)), ((1, 1), (1, 2)), ((1, 2), (1, 1)), ((1, 2), (2, 2)), ((2, 2), (1, 2)), ((1, 0), (2, 0)), ((2, 0), (1, 0)), ((2, 2), (3, 2)), ((3, 2), (2, 2)), ((2, 0), (2, 1)), ((2, 1), (2, 0)), ((1, 1), (2, 1)), ((2, 1), (1, 1)), ((2, 3), (3, 3)), ((3, 3), (2, 3))]",4,3,1.1738
003,1,46,"(3, 1)","(0, 2)",18,3,3,"[((2, 3), (3, 3)), ((3, 3), (2, 3)), ((1, 0), (2, 0)), ((2, 0), (1, 0)), ((0, 0), (0, 1)), ((0, 1), (0, 0)), ((2, 1), (2, 2)), ((2, 2), (2, 1)), ((0, 3), (1, 3)), ((1, 3), (0, 3)), ((0, 0), (1, 0)), ((1, 0), (0, 0)), ((1, 3), (2, 3)), ((2, 3), (1, 3)), ((2, 0), (3, 0)), ((3, 0), (2, 0)), ((2, 2), (3, 2)), ((3, 2), (2, 2)), ((1, 2), (1, 3)), ((1, 3), (1, 2)), ((0, 1), (1, 1)), ((1, 1), (0, 1)), ((3, 0), (3, 1)), ((3, 1), (3, 0)), ((3, 2), (3, 3)), ((3, 3), (3, 2)), ((0, 2), (1, 2)), ((1, 2), (0, 2)), ((1, 1), (1, 2)), ((1, 2), (1, 1)), ((2, 0), (2, 1)), ((2, 1), (2, 0)), ((3, 1), (3, 2)), ((3, 2), (3, 1)), ((1, 1), (2, 1)), ((2, 1), (1, 1))]",7,4,1.1539
003,1,47,"(3, 1)","(0, 2)",16,1,3,"[((1, 3), (2, 3)), ((2, 3), (1, 3)), ((0, 1), (1, 1)), ((1, 1), (0, 1)), ((2, 1), (3, 1)), ((3, 1), (2, 1)), ((3, 0), (3, 1)), ((3, 1), (3, 0)), ((1, 1), (2, 1)), ((2, 1), (1, 1)), ((3, 1), (3, 2)), ((3, 2), (3, 1)), ((1, 0), (1, 1)), ((1, 1), (1, 0)), ((0, 0), (1, 0)), ((1, 0), (0, 0)), ((0, 1), (0, 2)), ((0, 2), (0, 1)), ((2, 1), (2, 2)), ((2, 2), (2, 1)), ((1, 0), (2, 0)), ((2, 0), (1, 0)), ((0, 2), (0, 3)), ((0, 3), (0, 2)), ((0, 3), (1, 3)), ((1, 3), (0, 3)), ((2, 2), (2, 3)), ((2, 3), (2, 2)), ((3, 2), (3, 3)), ((3, 3), (3, 2)), ((1, 1), (1, 2)), ((1, 2), (1, 1))]",2,2,0.9383
003,1,48,"(1, 0)","(2, 3)",18,3,3,"[((2, 1), (3, 1)), ((3, 1), (2, 1)), ((2, 3), (3, 3)), ((3, 3), (2, 3)), ((0, 1), (0, 2)), ((0, 2), (0, 1)), ((1, 3), (2, 3)), ((2, 3), (1, 3)), ((0, 2), (1, 2)), ((1, 2), (0, 2)), ((3, 0), (3, 1)), ((3, 1), (3, 0)), ((2, 2), (2, 3)), ((2, 3), (2, 2)), ((1, 2), (1, 3)), ((1, 3), (1, 2)), ((2, 1), (2, 2)), ((2, 2), (2, 1)), ((3, 1), (3, 2)), ((3, 2), (3, 1)), ((2, 0), (2, 1)), ((2, 1), (2, 0)), ((2, 0), (3, 0)), ((3, 0), (2, 0)), ((3, 2), (3, 3)), ((3, 3), (3, 2)), ((1, 0), (2, 0)), ((2, 0), (1, 0)), ((0, 1), (1, 1)), ((1, 1), (0, 1)), ((1, 0), (1, 1)), ((1, 1), (1, 0)), ((0, 0), (1, 0)), ((1, 0), (0, 0)), ((0, 2), (0, 3)), ((0, 3), (0, 2))]",5,4,1.087
003,1,49,"(0, 2)","(3, 1)",17,2,3,"[((3, 2), (3, 3)), ((3, 3), (3, 2)), ((1, 2), (2, 2)), ((2, 2), (1, 2)), ((0, 0), (1, 0)), ((1, 0), (0, 0)), ((1, 1), (1, 2)), ((1, 2), (1, 1)), ((0, 0), (0, 1)), ((0, 1), (0, 0)), ((2, 3), (3, 3)), ((3, 3), (2, 3)), ((0, 2), (1, 2)), ((1, 2), (0, 2)), ((1, 3), (2, 3)), ((2, 3), (1, 3)), ((1, 0), (1, 1)), ((1, 1), (1, 0)), ((0, 2), (0, 3)), ((0, 3), (0, 2)), ((1, 2), (1, 3)), ((1, 3), (1, 2)), ((3, 1), (3, 2)), ((3, 2), (3, 1)), ((2, 0), (2, 1)), ((2, 1), (2, 0)), ((2, 1), (3, 1)), ((3, 1), (2, 1)), ((1, 0), (2, 0)), ((2, 0), (1, 0)), ((2, 0), (3, 0)), ((3, 0), (2, 0)), ((2, 2), (3, 2)), ((3, 2), (2, 2))]",5,3,0.9532
003,1,50,"(3, 1)","(0, 2)",18,3,3,"[((0, 1), (1, 1)), ((1, 1), (0, 1)), ((0, 0), (0, 1)), ((0, 1), (0, 0)), ((1, 2), (1, 3)), ((1, 3), (1, 2)), ((2, 0), (2, 1)), ((2, 1), (2, 0)), ((2, 2), (3, 2)), ((3, 2), (2, 2)), ((2, 3), (3, 3)), ((3, 3), (2, 3)), ((3, 0), (3, 1)), ((3, 1), (3, 0)), ((3, 2), (3, 3)), ((3, 3), (3, 2)), ((0, 1), (0, 2)), ((0, 2), (0, 1)), ((0, 2), (1, 2)), ((1, 2), (0, 2)), ((1, 2), (2, 2)), ((2, 2), (1, 2)), ((0, 3), (1, 3)), ((1, 3), (0, 3)), ((2, 2), (2, 3)), ((2, 3), (2, 2)), ((0, 2), (0, 3)), ((0, 3), (0, 2)), ((1, 0), (2, 0)), ((2, 0), (1, 0)), ((1, 0), (1, 1)), ((1, 1), (1, 0)), ((2, 1), (3, 1)), ((3, 1), (2, 1)), ((1, 1), (1, 2)), ((1, 2), (1, 1))]",3,4,1.5697
003,1,51,"(3, 2)","(0, 1)",16,1,3,"[((2, 3), (3, 3)), ((3, 3), (2, 3)), ((2, 2), (3, 2)), ((3, 2), (2, 2)), ((0, 1), (0, 2)), ((0, 2), (0, 1)), ((1, 0), (2, 0)), ((2, 0), (1, 0)), ((3, 2), (3, 3)), ((3, 3), (3, 2)), ((3, 0), (3, 1)), ((3, 1), (3, 0)), ((0, 2), (0, 3)), ((0, 3), (0, 2)), ((0, 0), (1, 0)), ((1, 0), (0, 0)), ((3, 1), (3, 2)), ((3, 2), (3, 1)), ((1, 0), (1, 1)), ((1, 1), (1, 0)), ((1, 2), (2, 2)), ((2, 2), (1, 2)), ((0, 0), (0, 1)), ((0, 1), (0, 0)), ((2, 0), (2, 1)), ((2, 1), (2, 0)), ((0, 3), (1, 3)), ((1, 3), (0, 3)), ((1, 1), (1, 2)), ((1, 2), (1, 1)), ((2, 2), (2, 3)), ((2, 3), (2, 2))]",2,2,1.0716
003,1,52,"(2, 3)","(1, 0)",17,2,3,"[((1, 2), (1, 3)), ((1, 3), (1, 2)), ((2, 1), (3, 1)), ((3, 1), (2, 1)), ((1, 0), (1, 1)), ((1, 1), (1, 0)), ((2, 0), (2, 1)), ((2, 1), (2, 0)), ((3, 0), (3, 1)), ((3, 1), (3, 0)), ((1, 2), (2, 2)), ((2, 2), (1, 2)), ((0, 2), (1, 2)), ((1, 2), (0, 2)), ((0, 1), (0, 2)), ((0, 2), (0, 1)), ((2, 1), (2, 2)), ((2, 2), (2, 1)), ((2, 3), (3, 3)), ((3, 3), (2, 3)), ((1, 0), (2, 0)), ((2, 0), (1, 0)), ((0, 1), (1, 1)), ((1, 1), (0, 1)), ((0, 3), (1, 3)), ((1, 3), (0, 3)), ((2, 2), (3, 2)), ((3, 2), (2, 2)), ((3, 2), (3, 3)), ((3, 3), (3, 2)), ((0, 0), (1, 0)), ((1, 0), (0, 0)), ((0, 0), (0, 1)), ((0, 1), (0, 0))]",3,3,1.4002
003,1,53,"(1, 0)","(2, 3)",18,3,3,"[((0, 2), (0, 3)), ((0, 3), (0, 2)), ((2, 0), (3, 0)), ((3, 0), (2, 0)), ((2, 3), (3, 3)), ((3, 3), (2, 3)), ((0, 1), (0, 2)), ((0, 2), (0, 1)), ((3, 1), (3, 2)), ((3, 2), (3, 1)), ((0, 0), (1, 0)), ((1, 0), (0, 0)), ((3, 2), (3, 3)), ((3, 3), (3, 2)), ((1, 1), (2, 1)), ((2, 1), (1, 1)), ((0, 1), (1, 1)), ((1, 1), (0, 1)), ((0, 2), (1, 2)), ((1, 2), (0, 2)), ((2, 1), (2, 2)), ((2, 2), (2, 1)), ((2, 2), (3, 2)), ((3, 2), (2, 2)), ((1, 3), (2, 3)), ((2, 3), (1, 3)), ((0, 0), (0, 1)), ((0, 1), (0, 0)), ((1, 1), (1, 2)), ((1, 2), (1, 1)), ((1, 0), (2, 0)), ((2, 0), (1, 0)), ((2, 2), (2, 3)), ((2, 3), (2, 2)), ((1, 2), (1, 3)), ((1, 3), (1, 2))]",6,5,1.0553
003,1,54,"(2, 0)","(1, 3)",17,2,3,"[((1, 3), (2, 3)), ((2, 3), (1, 3)), ((0, 2), (1, 2)), ((1, 2), (0, 2)), ((1, 0), (1, 1)), ((1, 1), (1, 0)), ((2, 0), (2, 1)), ((2, 1), (2, 0)), ((0, 2), (0, 3)), ((0, 3), (0, 2)), ((3, 0), (3, 1)), ((3, 1), (3, 0)), ((0, 3), (1, 3)), ((1, 3), (0, 3)), ((1, 2), (2, 2)), ((2, 2), (1, 2)), ((2, 1), (3, 1)), ((3, 1), (2, 1)), ((3, 2), (3, 3)), ((3, 3), (3, 2)), ((0, 0), (1, 0)), ((1, 0), (0, 0)), ((2, 2), (2, 3)), ((2, 3), (2, 2)), ((1, 1), (1, 2)), ((1, 2), (1, 1)), ((3, 1), (3, 2)), ((3, 2), (3, 1)), ((2, 3), (3, 3)), ((3, 3), (2, 3)), ((0, 1), (1, 1)), ((1, 1), (0, 1)), ((1, 2), (1, 3)), ((1, 3), (1, 2))]",3,3,1.5539
003,1,55,"(0, 1)","(3, 2)",15,0,3,"[((0, 2), (1, 2)), ((1, 2), (0, 2)), ((2, 3), (3, 3)), ((3, 3), (2, 3)), ((3, 1), (3, 2)), ((3, 2), (3, 1)), ((1, 1), (1, 2)), ((1, 2), (1, 1)), ((1, 2), (1, 3)), ((1, 3), (1, 2)), ((2, 0), (3, 0)), ((3, 0), (2, 0)), ((3, 0), (3, 1)), ((3, 1), (3, 0)), ((2, 2), (2, 3)), ((2, 3), (2, 2)), ((1, 0), (2, 0)), ((2, 0), (1, 0)), ((0, 0), (0, 1)), ((0, 1), (0, 0)), ((1, 2), (2, 2)), ((2, 2), (1, 2)), ((0, 1), (0, 2)), ((0, 2), (0, 1)), ((0, 2), (0, 3)), ((0, 3), (0, 2)), ((2, 1), (3, 1)), ((3, 1), (2, 1)), ((2, 2), (3, 2)), ((3, 2), (2, 2))]",1,1,1.002
003,1,56,"(2, 3)","(1, 0)",18,3,3,"[((2, 2), (2, 3)), ((2, 3), (2, 2)), ((0, 1), (0, 2)), ((0, 2), (0, 1)), ((1, 0), (1, 1)), ((1, 1), (1, 0)), ((0, 1), (1, 1)), ((1, 1), (0, 1)), ((0, 3), (1, 3)), ((1, 3), (0, 3)), ((2, 1), (3, 1)), ((3, 1), (2, 1)), ((0, 0), (1, 0)), ((1, 0), (0, 0)), ((2, 1), (2, 2)), ((2, 2), (2, 1)), ((1, 2), (1, 3)), ((1, 3), (1, 2)), ((2, 2), (3, 2)), ((3, 2), (2, 2)), ((2, 0), (2, 1)), ((2, 1), (2, 0)), ((1, 2), (2, 2)), ((2, 2), (1, 2)), ((1, 3), (2, 3)), ((2, 3), (1, 3)), ((1, 1), (1, 2)), ((1, 2), (1, 1)), ((0, 0), (0, 1)), ((0, 1), (0, 0)), ((1, 0), (2, 0)), ((2, 0), (1, 0)), ((2, 3), (3, 3)), ((3, 3), (2, 3)), ((3, 0), (3, 1)), ((3, 1), (3, 0))]",6,5,1.5036
003,1,57,"(0, 2)","(3, 1)",16,1,3,"[((1, 0), (2, 0)), ((2, 0), (1, 0)), ((1, 1), (1, 2)), ((1, 2), (1, 1)), ((2, 0), (3, 0)), ((3, 0), (2, 0)), ((0, 0), (1, 0)), ((1, 0), (0, 0)), ((3, 1), (3, 2)), ((3, 2), (3, 1)), ((0, 3), (1, 3)), ((1, 3), (0, 3)), ((2, 2), (3, 2)), ((3, 2), (2, 2)), ((2, 1), (2, 2)), ((2, 2), (2, 1)), ((2, 3), (3, 3)), ((3, 3), (2, 3)), ((1, 2), (1, 3)), ((1, 3), (1, 2)), ((1, 3), (2, 3)), ((2, 3), (1, 3)), ((0, 2), (1, 2)), ((1, 2), (0, 2)), ((3, 0), (3, 1)), ((3, 1), (3, 0)), ((1, 0), (1, 1)), ((1, 1), (1, 0)), ((2, 1), (3, 1)), ((3, 1), (2, 1)), ((0, 0), (0, 1)), ((0, 1), (0, 0))]",1,1,0.8566
003,1,58,"(1, 0)","(2, 3)",18,3,3,"[((2, 0), (3, 0)), ((3, 0), (2, 0)), ((0, 2), (0, 3)), ((0, 3), (0, 2)), ((1, 1), (2, 1)), ((2, 1), (1, 1)), ((2, 1), (3, 1)), ((3, 1), (2, 1)), ((1, 0), (2, 0)), ((2, 0), (1, 0)), ((0, 3), (1, 3)), ((1, 3), (0, 3)), ((2, 2), (3, 2)), ((3, 2), (2, 2)), ((0, 0), (1, 0)), ((1, 0), (0, 0)), ((3, 2), (3, 3)), ((3, 3), (3, 2)), ((0, 1), (0, 2)), ((0, 2), (0, 1)), ((1, 3), (2, 3)), ((2, 3), (1, 3)), ((1, 1), (1, 2)), ((1, 2), (1, 1)), ((2, 3), (3, 3)), ((3, 3), (2, 3)), ((0, 1), (1, 1)), ((1, 1), (0, 1)), ((1, 2), (1, 3)), ((1, 3), (1, 2)), ((2, 1), (2, 2)), ((2, 2), (2, 1)), ((0, 0), (0, 1)), ((0, 1), (0, 0)), ((3, 0), (3, 1)), ((3, 1), (3, 0))]",7,3,0.9545
003,1,59,"(0, 1)","(3, 2)",18,3,3,"[((2, 0), (3, 0)), ((3, 0), (2, 0)), ((0, 1), (1, 1)), ((1, 1), (0, 1)), ((2, 2), (3, 2)), ((3, 2), (2, 2)), ((2, 1), (3, 1)), ((3, 1), (2, 1)), ((1, 2), (2, 2)), ((2, 2), (1, 2)), ((0, 2), (1, 2)), ((1, 2), (0, 2)), ((1, 0), (2, 0)), ((2, 0), (1, 0)), ((0, 0), (0, 1)), ((0, 1), (0, 0)), ((3, 0), (3, 1)), ((3, 1), (3, 0)), ((0, 3), (1, 3)), ((1, 3), (0, 3)), ((2, 3), (3, 3)), ((3, 3), (2, 3)), ((1, 2), (1, 3)), ((1, 3), (1, 2)), ((1, 1), (1, 2)), ((1, 2), (1, 1)), ((1, 3), (2, 3)), ((2, 3), (1, 3)), ((1, 0), (1, 1)), ((1, 1), (1, 0)), ((2, 2), (2, 3)), ((2, 3), (2, 2)), ((0, 2), (0, 3)), ((0, 3), (0, 2)), ((3, 1), (3, 2)), ((3, 2), (3, 1))]",6,3,1.9215
003,1,60,"(1, 3)","(2, 0)",18,3,3,"[((2, 2), (2, 3)), ((2, 3), (2, 2)), ((1, 0), (2, 0)), ((2, 0), (1, 0)), ((2, 0), (3, 0)), ((3, 0), (2, 0)), ((2, 2), (3, 2)), ((3, 2), (2, 2)), ((1, 3), (2, 3)), ((2, 3), (1, 3)), ((3, 0), (3, 1)), ((3, 1), (3, 0)), ((2, 3), (3, 3)), ((3, 3), (2, 3)), ((3, 1), (3, 2)), ((3, 2), (3, 1)), ((1, 1), (2, 1)), ((2, 1), (1, 1)), ((3, 2), (3, 3)), ((3, 3), (3, 2)), ((0, 1), (0, 2)), ((0, 2), (0, 1)), ((1, 1), (1, 2)), ((1, 2), (1, 1)), ((2, 0), (2, 1)), ((2, 1), (2, 0)), ((1, 2), (2, 2)), ((2, 2), (1, 2)), ((0, 2), (0, 3)), ((0, 3), (0, 2)), ((0, 1), (1, 1)), ((1, 1), (0, 1)), ((0, 3), (1, 3)), ((1, 3), (0, 3)), ((0, 0), (1, 0)), ((1, 0), (0, 0))]",7,4,1.1059
003,1,61,"(0, 1)","(3, 2)",17,2,3,"[((3, 1), (3, 2)), ((3, 2), (3, 1)), ((1, 2), (1, 3)), ((1, 3), (1, 2)), ((2, 3), (3, 3)), ((3, 3), (2, 3)), ((0, 3), (1, 3)), ((1, 3), (0, 3)), ((2, 1), (2, 2)), ((2, 2), (2, 1)), ((1, 1), (1, 2)), ((1, 2), (1, 1)), ((2, 2), (2, 3)), ((2, 3), (2, 2)), ((1, 0), (1, 1)), ((1, 1), (1, 0)), ((3, 0), (3, 1)), ((3, 1), (3, 0)), ((0, 2), (1, 2)), ((1, 2), (0, 2)), ((1, 0), (2, 0)), ((2, 0), (1, 0)), ((0, 0), (0, 1)), ((0, 1), (0, 0)), ((3, 2), (3, 3)), ((3, 3), (3, 2)), ((1, 3), (2, 3)), ((2, 3), (1, 3)), ((2, 0), (2, 1)), ((2, 1), (2, 0)), ((0, 1), (0, 2)), ((0, 2), (0, 1)), ((1, 2), (2, 2)), ((2, 2), (1, 2))]",5,2,1.0201
003,1,62,"(3, 1)","(0, 2)",18,3,3,"[((0, 2), (1, 2)), ((1, 2), (0, 2)), ((2, 3), (3, 3)), ((3, 3), (2, 3)), ((2, 0), (3, 0)), ((3, 0), (2, 0)), ((0, 2), (0, 3)), ((0, 3), (0, 2)), ((1, 2), (1, 3)), ((1, 3), (1, 2)), ((0, 1), (0, 2)), ((0, 2), (0, 1)), ((3, 2), (3, 3)), ((3, 3), (3, 2)), ((3, 1), (3, 2)), ((3, 2), (3, 1)), ((1, 3), (2, 3)), ((2, 3), (1, 3)), ((1, 1), (1, 2)), ((1, 2), (1, 1)), ((1, 0), (2, 0)), ((2, 0), (1, 0)), ((2, 1), (3, 1)), ((3, 1), (2, 1)), ((2, 0), (2, 1)), ((2, 1), (2, 0)), ((0, 0), (1, 0)), ((1, 0), (0, 0)), ((1, 1), (2, 1)), ((2, 1), (1, 1)), ((2, 1), (2, 2)), ((2, 2), (2, 1)), ((0, 3), (1, 3)), ((1, 3), (0, 3)), ((0, 0), (0, 1)), ((0, 1), (0, 0))]",6,3,1.0354
003,1,63,"(1, 3)","(2, 0)",17,2,3,"[((3, 1), (3, 2)), ((3, 2), (3, 1)), ((0, 2), (1, 2)), ((1, 2), (0, 2)), ((1, 0), (1, 1)), ((1, 1), (1, 0)), ((0, 1), (0, 2)), ((0, 2), (0, 1)), ((0, 0), (0, 1)), ((0, 1), (0, 0)), ((0, 1), (1, 1)), ((1, 1), (0, 1)), ((0, 3), (1, 3)), ((1, 3), (0, 3)), ((2, 1), (3, 1)), ((3, 1), (2, 1)), ((1, 2), (2, 2)), ((2, 2), (1, 2)), ((0, 0), (1, 0)), ((1, 0), (0, 0)), ((2, 3), (3, 3)), ((3, 3), (2, 3)), ((1, 1), (2, 1)), ((2, 1), (1, 1)), ((2, 0), (3, 0)), ((3, 0), (2, 0)), ((1, 1), (1, 2)), ((1, 2), (1, 1)), ((3, 0), (3, 1)), ((3, 1), (3, 0)), ((1, 3), (2, 3)), ((2, 3), (1, 3)), ((3, 2), (3, 3)), ((3, 3), (3, 2))]",1,1,0.956
003,2,1,"(0, 2)","(3, 1)",18,3,5,"[((1, 1), (2, 1)), ((2, 1), (1, 1)), ((2, 0), (2, 1)), ((2, 1), (2, 0)), ((2, 0), (3, 0)), ((3, 0), (2, 0)), ((2, 2), (3, 2)), ((3, 2), (2, 2)), ((2, 1), (3, 1)), ((3, 1), (2, 1)), ((0, 1), (1, 1)), ((1, 1), (0, 1)), ((0, 0), (0, 1)), ((0, 1), (0, 0)), ((3, 0), (3, 1)), ((3, 1), (3, 0)), ((0, 3), (1, 3)), ((1, 3), (0, 3)), ((3, 1), (3, 2)), ((3, 2), (3, 1)), ((1, 0), (1, 1)), ((1, 1), (1, 0)), ((0, 2), (1, 2)), ((1, 2), (0, 2)), ((3, 2), (3, 3)), ((3, 3), (3, 2)), ((1, 1), (1, 2)), ((1, 2), (1, 1)), ((1, 3), (2, 3)), ((2, 3), (1, 3)), ((0, 0), (1, 0)), ((1, 0), (0, 0)), ((1, 2), (2, 2)), ((2, 2), (1, 2)), ((0, 2), (0, 3)), ((0, 3), (0, 2))]",7,3,1.2537
003,2,2,"(2, 3)","(1, 0)",17,2,5,"[((0, 0), (1, 0)), ((1, 0), (0, 0)), ((2, 1), (3, 1)), ((3, 1), (2, 1)), ((0, 2), (0, 3)), ((0, 3), (0, 2)), ((1, 0), (2, 0)), ((2, 0), (1, 0)), ((3, 1), (3, 2)), ((3, 2), (3, 1)), ((1, 2), (2, 2)), ((2, 2), (1, 2)), ((0, 1), (0, 2)), ((0, 2), (0, 1)), ((3, 2), (3, 3)), ((3, 3), (3, 2)), ((1, 3), (2, 3)), ((2, 3), (1, 3)), ((0, 1), (1, 1)), ((1, 1), (0, 1)), ((2, 2), (2, 3)), ((2, 3), (2, 2)), ((2, 2), (3, 2)), ((3, 2), (2, 2)), ((2, 0), (3, 0)), ((3, 0), (2, 0)), ((3, 0), (3, 1)), ((3, 1), (3, 0)), ((1, 1), (1, 2)), ((1, 2), (1, 1)), ((2, 0), (2, 1)), ((2, 1), (2, 0)), ((0, 3), (1, 3)), ((1, 3), (0, 3))]",4,4,0.8694
003,2,3,"(3, 1)","(0, 2)",18,3,5,"[((1, 3), (2, 3)), ((2, 3), (1, 3)), ((0, 0), (1, 0)), ((1, 0), (0, 0)), ((0, 0), (0, 1)), ((0, 1), (0, 0)), ((1, 2), (1, 3)), ((1, 3), (1, 2)), ((0, 2), (1, 2)), ((1, 2), (0, 2)), ((1, 0), (2, 0)), ((2, 0), (1, 0)), ((1, 1), (2, 1)), ((2, 1), (1, 1)), ((3, 1), (3, 2)), ((3, 2), (3, 1)), ((2, 0), (2, 1)), ((2, 1), (2, 0)), ((1, 1), (1, 2)), ((1, 2), (1, 1)), ((1, 2), (2, 2)), ((2, 2), (1, 2)), ((0, 2), (0, 3)), ((0, 3), (0, 2)), ((3, 0), (3, 1)), ((3, 1), (3, 0)), ((2, 1), (3, 1)), ((3, 1), (2, 1)), ((0, 1), (0, 2)), ((0, 2), (0, 1)), ((2, 2), (3, 2)), ((3, 2), (2, 2)), ((3, 2), (3, 3)), ((3, 3), (3, 2)), ((1, 0), (1, 1)), ((1, 1), (1, 0))]",7,5,1.7391
003,2,4,"(1, 0)","(2, 3)",17,2,5,"[((1, 0), (1, 1)), ((1, 1), (1, 0)), ((1, 2), (1, 3)), ((1, 3), (1, 2)), ((2, 0), (2, 1)), ((2, 1), (2, 0)), ((0, 1), (1, 1)), ((1, 1), (0, 1)), ((0, 0), (1, 0)), ((1, 0), (0, 0)), ((2, 2), (3, 2)), ((3, 2), (2, 2)), ((1, 0), (2, 0)), ((2, 0), (1, 0)), ((2, 1), (3, 1)), ((3, 1), (2, 1)), ((1, 1), (2, 1)), ((2, 1), (1, 1)), ((2, 1), (2, 2)), ((2, 2), (2, 1)), ((2, 0), (3, 0)), ((3, 0), (2, 0)), ((3, 0), (3, 1)), ((3, 1), (3, 0)), ((0, 3), (1, 3)), ((1, 3), (0, 3)), ((0, 2), (1, 2)), ((1, 2), (0, 2)), ((1, 2), (2, 2)), ((2, 2), (1, 2)), ((3, 2), (3, 3)), ((3, 3), (3, 2)), ((2, 3), (3, 3)), ((3, 3), (2, 3))]",5,3,1.1848
003,2,5,"(0, 2)","(3, 1)",18,3,5,"[((0, 0), (1, 0)), ((1, 0), (0, 0)), ((2, 3), (3, 3)), ((3, 3), (2, 3)), ((3, 2), (3, 3)), ((3, 3), (3, 2)), ((0, 2), (0, 3)), ((0, 3), (0, 2)), ((1, 1), (1, 2)), ((1, 2), (1, 1)), ((3, 1), (3, 2)), ((3, 2), (3, 1)), ((2, 1), (3, 1)), ((3, 1), (2, 1)), ((0, 3), (1, 3)), ((1, 3), (0, 3)), ((3, 0), (3, 1)), ((3, 1), (3, 0)), ((1, 0), (2, 0)), ((2, 0), (1, 0)), ((1, 1), (2, 1)), ((2, 1), (1, 1)), ((2, 0), (2, 1)), ((2, 1), (2, 0)), ((0, 1), (0, 2)), ((0, 2), (0, 1)), ((2, 0), (3, 0)), ((3, 0), (2, 0)), ((2, 2), (3, 2)), ((3, 2), (2, 2)), ((1, 2), (1, 3)), ((1, 3), (1, 2)), ((1, 2), (2, 2)), ((2, 2), (1, 2)), ((0, 2), (1, 2)), ((1, 2), (0, 2))]",6,3,1.0369
003,2,6,"(3, 1)","(0, 2)",18,3,5,"[((0, 2), (1, 2)), ((1, 2), (0, 2)), ((1, 2), (1, 3)), ((1, 3), (1, 2)), ((3, 1), (3, 2)), ((3, 2), (3, 1)), ((2, 0), (3, 0)), ((3, 0), (2, 0)), ((2, 0), (2, 1)), ((2, 1), (2, 0)), ((2, 2), (2, 3)), ((2, 3), (2, 2)), ((0, 2), (0, 3)), ((0, 3), (0, 2)), ((1, 0), (2, 0)), ((2, 0), (1, 0)), ((0, 0), (0, 1)), ((0, 1), (0, 0)), ((1, 2), (2, 2)), ((2, 2), (1, 2)), ((0, 0), (1, 0)), ((1, 0), (0, 0)), ((3, 0), (3, 1)), ((3, 1), (3, 0)), ((1, 0), (1, 1)), ((1, 1), (1, 0)), ((0, 1), (0, 2)), ((0, 2), (0, 1)), ((0, 1), (1, 1)), ((1, 1), (0, 1)), ((2, 3), (3, 3)), ((3, 3), (2, 3)), ((0, 3), (1, 3)), ((1, 3), (0, 3)), ((1, 3), (2, 3)), ((2, 3), (1, 3))]",2,2,0.52
003,2,7,"(3, 1)","(0, 2)",18,3,5,"[((0, 2), (1, 2)), ((1, 2), (0, 2)), ((0, 3), (1, 3)), ((1, 3), (0, 3)), ((2, 0), (3, 0)), ((3, 0), (2, 0)), ((2, 1), (3, 1)), ((3, 1), (2, 1)), ((2, 2), (3, 2)), ((3, 2), (2, 2)), ((1, 2), (1, 3)), ((1, 3), (1, 2)), ((2, 0), (2, 1)), ((2, 1), (2, 0)), ((1, 0), (1, 1)), ((1, 1), (1, 0)), ((0, 0), (0, 1)), ((0, 1), (0, 0)), ((3, 2), (3, 3)), ((3, 3), (3, 2)), ((1, 0), (2, 0)), ((2, 0), (1, 0)), ((2, 1), (2, 2)), ((2, 2), (2, 1)), ((1, 1), (1, 2)), ((1, 2), (1, 1)), ((1, 2), (2, 2)), ((2, 2), (1, 2)), ((1, 3), (2, 3)), ((2, 3), (1, 3)), ((3, 1), (3, 2)), ((3, 2), (3, 1)), ((0, 1), (1, 1)), ((1, 1), (0, 1)), ((0, 0), (1, 0)), ((1, 0), (0, 0))]",6,4,1.2395
003,2,8,"(0, 1)","(3, 2)",17,2,5,"[((0, 3), (1, 3)), ((1, 3), (0, 3)), ((0, 2), (1, 2)), ((1, 2), (0, 2)), ((1, 1), (2, 1)), ((2, 1), (1, 1)), ((1, 3), (2, 3)), ((2, 3), (1, 3)), ((0, 1), (1, 1)), ((1, 1), (0, 1)), ((1, 1), (1, 2)), ((1, 2), (1, 1)), ((0, 2), (0, 3)), ((0, 3), (0, 2)), ((1, 0), (2, 0)), ((2, 0), (1, 0)), ((1, 2), (2, 2)), ((2, 2), (1, 2)), ((3, 0), (3, 1)), ((3, 1), (3, 0)), ((2, 2), (3, 2)), ((3, 2), (2, 2)), ((2, 0), (2, 1)), ((2, 1), (2, 0)), ((3, 1), (3, 2)), ((3, 2), (3, 1)), ((3, 2), (3, 3)), ((3, 3), (3, 2)), ((2, 2), (2, 3)), ((2, 3), (2, 2)), ((0, 0), (0, 1)), ((0, 1), (0, 0)), ((2, 1), (2, 2)), ((2, 2), (2, 1))]",5,3,1.185
003,2,9,"(2, 3)","(1, 0)",19,4,5,"[((1, 3), (2, 3)), ((2, 3), (1, 3)), ((0, 0), (1, 0)), ((1, 0), (0, 0)), ((2, 0), (2, 1)), ((2, 1), (2, 0)), ((1, 2), (1, 3)), ((1, 3), (1, 2)), ((1, 0), (2, 0)), ((2, 0), (1, 0)), ((1, 1), (2, 1)), ((2, 1), (1, 1)), ((2, 0), (3, 0)), ((3, 0), (2, 0)), ((2, 1), (3, 1)), ((3, 1), (2, 1)), ((1, 0), (1, 1)), ((1, 1), (1, 0)), ((2, 1), (2, 2)), ((2, 2), (2, 1)), ((0, 2), (0, 3)), ((0, 3), (0, 2)), ((0, 1), (0, 2)), ((0, 2), (0, 1)), ((3, 0), (3, 1)), ((3, 1), (3, 0)), ((0, 0), (0, 1)), ((0, 1), (0, 0)), ((3, 1), (3, 2)), ((3, 2), (3, 1)), ((2, 2), (3, 2)), ((3, 2), (2, 2)), ((0, 1), (1, 1)), ((1, 1), (0, 1)), ((0, 3), (1, 3)), ((1, 3), (0, 3)), ((2, 3), (3, 3)), ((3, 3), (2, 3))]",7,5,1.0553
003,2,10,"(2, 0)","(1, 3)",17,2,5,"[((0, 3), (1, 3)), ((1, 3), (0, 3)), ((1, 2), (2, 2)), ((2, 2), (1, 2)), ((2, 1), (2, 2)), ((2, 2), (2, 1)), ((1, 1), (1, 2)), ((1, 2), (1, 1)), ((0, 0), (1, 0)), ((1, 0), (0, 0)), ((2, 2), (2, 3)), ((2, 3), (2, 2)), ((0, 1), (0, 2)), ((0, 2), (0, 1)), ((1, 3), (2, 3)), ((2, 3), (1, 3)), ((3, 0), (3, 1)), ((3, 1), (3, 0)), ((0, 2), (1, 2)), ((1, 2), (0, 2)), ((2, 0), (3, 0)), ((3, 0), (2, 0)), ((1, 0), (2, 0)), ((2, 0), (1, 0)), ((0, 1), (1, 1)), ((1, 1), (0, 1)), ((3, 2), (3, 3)), ((3, 3), (3, 2)), ((2, 2), (3, 2)), ((3, 2), (2, 2)), ((1, 1), (2, 1)), ((2, 1), (1, 1)), ((2, 0), (2, 1)), ((2, 1), (2, 0))]",3,3,0.9845
003,2,11,"(2, 0)","(1, 3)",17,2,5,"[((2, 3), (3, 3)), ((3, 3), (2, 3)), ((0, 0), (0, 1)), ((0, 1), (0, 0)), ((1, 2), (1, 3)), ((1, 3), (1, 2)), ((1, 2), (2, 2)), ((2, 2), (1, 2)), ((0, 2), (0, 3)), ((0, 3), (0, 2)), ((1, 3), (2, 3)), ((2, 3), (1, 3)), ((0, 3), (1, 3)), ((1, 3), (0, 3)), ((0, 1), (0, 2)), ((0, 2), (0, 1)), ((0, 0), (1, 0)), ((1, 0), (0, 0)), ((2, 0), (3, 0)), ((3, 0), (2, 0)), ((2, 2), (2, 3)), ((2, 3), (2, 2)), ((1, 0), (2, 0)), ((2, 0), (1, 0)), ((1, 1), (1, 2)), ((1, 2), (1, 1)), ((3, 1), (3, 2)), ((3, 2), (3, 1)), ((1, 1), (2, 1)), ((2, 1), (1, 1)), ((3, 2), (3, 3)), ((3, 3), (3, 2)), ((2, 1), (3, 1)), ((3, 1), (2, 1))]",1,1,0.4562
003,2,12,"(0, 1)","(3, 2)",16,1,5,"[((2, 2), (2, 3)), ((2, 3), (2, 2)), ((3, 1), (3, 2)), ((3, 2), (3, 1)), ((2, 3), (3, 3)), ((3, 3), (2, 3)), ((3, 0), (3, 1)), ((3, 1), (3, 0)), ((0, 2), (0, 3)), ((0, 3), (0, 2)), ((1, 1), (1, 2)), ((1, 2), (1, 1)), ((2, 1), (3, 1)), ((3, 1), (2, 1)), ((0, 2), (1, 2)), ((1, 2), (0, 2)), ((1, 2), (1, 3)), ((1, 3), (1, 2)), ((0, 0), (1, 0)), ((1, 0), (0, 0)), ((3, 2), (3, 3)), ((3, 3), (3, 2)), ((0, 1), (0, 2)), ((0, 2), (0, 1)), ((0, 0), (0, 1)), ((0, 1), (0, 0)), ((1, 1), (2, 1)), ((2, 1), (1, 1)), ((2, 0), (2, 1)), ((2, 1), (2, 0)), ((1, 0), (2, 0)), ((2, 0), (1, 0))]",2,2,0.9035
003,2,13,"(3, 2)","(0, 1)",18,3,5,"[((1, 2), (1, 3)), ((1, 3), (1, 2)), ((0, 2), (1, 2)), ((1, 2), (0, 2)), ((1, 3), (2, 3)), ((2, 3), (1, 3)), ((1, 1), (1, 2)), ((1, 2), (1, 1)), ((2, 1), (3, 1)), ((3, 1), (2, 1)), ((1, 0), (1, 1)), ((1, 1), (1, 0)), ((2, 1), (2, 2)), ((2, 2), (2, 1)), ((2, 3), (3, 3)), ((3, 3), (2, 3)), ((3, 0), (3, 1)), ((3, 1), (3, 0)), ((0, 2), (0, 3)), ((0, 3), (0, 2)), ((2, 2), (2, 3)), ((2, 3), (2, 2)), ((0, 3), (1, 3)), ((1, 3), (0, 3)), ((2, 0), (2, 1)), ((2, 1), (2, 0)), ((0, 0), (1, 0)), ((1, 0), (0, 0)), ((2, 2), (3, 2)), ((3, 2), (2, 2)), ((0, 0), (0, 1)), ((0, 1), (0, 0)), ((1, 0), (2, 0)), ((2, 0), (1, 0)), ((0, 1), (0, 2)), ((0, 2), (0, 1))]",7,4,1.072
003,2,14,"(2, 3)","(1, 0)",16,1,5,"[((0, 0), (0, 1)), ((0, 1), (0, 0)), ((2, 0), (3, 0)), ((3, 0), (2, 0)), ((3, 2), (3, 3)), ((3, 3), (3, 2)), ((1, 1), (1, 2)), ((1, 2), (1, 1)), ((0, 3), (1, 3)), ((1, 3), (0, 3)), ((1, 2), (1, 3)), ((1, 3), (1, 2)), ((3, 0), (3, 1)), ((3, 1), (3, 0)), ((0, 0), (1, 0)), ((1, 0), (0, 0)), ((0, 1), (1, 1)), ((1, 1), (0, 1)), ((1, 2), (2, 2)), ((2, 2), (1, 2)), ((1, 0), (2, 0)), ((2, 0), (1, 0)), ((2, 3), (3, 3)), ((3, 3), (2, 3)), ((1, 1), (2, 1)), ((2, 1), (1, 1)), ((2, 2), (2, 3)), ((2, 3), (2, 2)), ((3, 1), (3, 2)), ((3, 2), (3, 1)), ((0, 2), (1, 2)), ((1, 2), (0, 2))]",2,2,0.887
003,2,15,"(0, 2)","(3, 1)",18,3,5,"[((0, 3), (1, 3)), ((1, 3), (0, 3)), ((2, 2), (3, 2)), ((3, 2), (2, 2)), ((1, 2), (1, 3)), ((1, 3), (1, 2)), ((2, 0), (3, 0)), ((3, 0), (2, 0)), ((1, 0), (2, 0)), ((2, 0), (1, 0)), ((0, 0), (1, 0)), ((1, 0), (0, 0)), ((0, 0), (0, 1)), ((0, 1), (0, 0)), ((0, 2), (1, 2)), ((1, 2), (0, 2)), ((2, 1), (2, 2)), ((2, 2), (2, 1)), ((1, 1), (1, 2)), ((1, 2), (1, 1)), ((2, 1), (3, 1)), ((3, 1), (2, 1)), ((2, 2), (2, 3)), ((2, 3), (2, 2)), ((0, 1), (1, 1)), ((1, 1), (0, 1)), ((0, 2), (0, 3)), ((0, 3), (0, 2)), ((3, 0), (3, 1)), ((3, 1), (3, 0)), ((2, 3), (3, 3)), ((3, 3), (2, 3)), ((3, 1), (3, 2)), ((3, 2), (3, 1)), ((0, 1), (0, 2)), ((0, 2), (0, 1))]",5,3,1.1046
003,2,16,"(2, 0)","(1, 3)",18,3,5,"[((0, 3), (1, 3)), ((1, 3), (0, 3)), ((0, 2), (0, 3)), ((0, 3), (0, 2)), ((0, 1), (0, 2)), ((0, 2), (0, 1)), ((2, 1), (3, 1)), ((3, 1), (2, 1)), ((1, 3), (2, 3)), ((2, 3), (1, 3)), ((2, 2), (3, 2)), ((3, 2), (2, 2)), ((0, 0), (1, 0)), ((1, 0), (0, 0)), ((1, 0), (1, 1)), ((1, 1), (1, 0)), ((2, 1), (2, 2)), ((2, 2), (2, 1)), ((1, 2), (1, 3)), ((1, 3), (1, 2)), ((2, 2), (2, 3)), ((2, 3), (2, 2)), ((3, 1), (3, 2)), ((3, 2), (3, 1)), ((2, 3), (3, 3)), ((3, 3), (2, 3)), ((3, 0), (3, 1)), ((3, 1), (3, 0)), ((2, 0), (3, 0)), ((3, 0), (2, 0)), ((1, 1), (2, 1)), ((2, 1), (1, 1)), ((1, 1), (1, 2)), ((1, 2), (1, 1)), ((0, 0), (0, 1)), ((0, 1), (0, 0))]",6,5,1.0996
003,2,17,"(2, 0)","(1, 3)",16,1,5,"[((2, 3), (3, 3)), ((3, 3), (2, 3)), ((0, 2), (0, 3)), ((0, 3), (0, 2)), ((1, 2), (1, 3)), ((1, 3), (1, 2)), ((2, 2), (2, 3)), ((2, 3), (2, 2)), ((1, 0), (2, 0)), ((2, 0), (1, 0)), ((0, 2), (1, 2)), ((1, 2), (0, 2)), ((2, 0), (3, 0)), ((3, 0), (2, 0)), ((3, 1), (3, 2)), ((3, 2), (3, 1)), ((0, 1), (0, 2)), ((0, 2), (0, 1)), ((3, 0), (3, 1)), ((3, 1), (3, 0)), ((2, 2), (3, 2)), ((3, 2), (2, 2)), ((2, 1), (3, 1)), ((3, 1), (2, 1)), ((0, 0), (1, 0)), ((1, 0), (0, 0)), ((1, 2), (2, 2)), ((2, 2), (1, 2)), ((0, 1), (1, 1)), ((1, 1), (0, 1)), ((1, 1), (1, 2)), ((1, 2), (1, 1))]",3,2,1.0041
003,2,18,"(3, 2)","(0, 1)",17,2,5,"[((1, 0), (2, 0)), ((2, 0), (1, 0)), ((0, 1), (1, 1)), ((1, 1), (0, 1)), ((0, 2), (1, 2)), ((1, 2), (0, 2)), ((2, 1), (3, 1)), ((3, 1), (2, 1)), ((1, 2), (2, 2)), ((2, 2), (1, 2)), ((3, 1), (3, 2)), ((3, 2), (3, 1)), ((0, 1), (0, 2)), ((0, 2), (0, 1)), ((1, 1), (1, 2)), ((1, 2), (1, 1)), ((3, 2), (3, 3)), ((3, 3), (3, 2)), ((0, 2), (0, 3)), ((0, 3), (0, 2)), ((2, 3), (3, 3)), ((3, 3), (2, 3)), ((1, 3), (2, 3)), ((2, 3), (1, 3)), ((0, 0), (0, 1)), ((0, 1), (0, 0)), ((2, 2), (2, 3)), ((2, 3), (2, 2)), ((0, 0), (1, 0)), ((1, 0), (0, 0)), ((2, 1), (2, 2)), ((2, 2), (2, 1)), ((3, 0), (3, 1)), ((3, 1), (3, 0))]",4,4,0.9211
003,2,19,"(2, 0)","(1, 3)",17,2,5,"[((3, 2), (3, 3)), ((3, 3), (3, 2)), ((0, 0), (0, 1)), ((0, 1), (0, 0)), ((0, 1), (1, 1)), ((1, 1), (0, 1)), ((2, 2), (3, 2)), ((3, 2), (2, 2)), ((2, 0), (2, 1)), ((2, 1), (2, 0)), ((1, 1), (1, 2)), ((1, 2), (1, 1)), ((0, 2), (0, 3)), ((0, 3), (0, 2)), ((0, 3), (1, 3)), ((1, 3), (0, 3)), ((1, 0), (1, 1)), ((1, 1), (1, 0)), ((2, 0), (3, 0)), ((3, 0), (2, 0)), ((2, 2), (2, 3)), ((2, 3), (2, 2)), ((1, 0), (2, 0)), ((2, 0), (1, 0)), ((1, 2), (2, 2)), ((2, 2), (1, 2)), ((2, 3), (3, 3)), ((3, 3), (2, 3)), ((3, 1), (3, 2)), ((3, 2), (3, 1)), ((2, 1), (2, 2)), ((2, 2), (2, 1)), ((1, 3), (2, 3)), ((2, 3), (1, 3))]",4,4,1.2203
003,2,20,"(1, 3)","(2, 0)",17,2,5,"[((0, 2), (0, 3)), ((0, 3), (0, 2)), ((3, 2), (3, 3)), ((3, 3), (3, 2)), ((1, 0), (1, 1)), ((1, 1), (1, 0)), ((1, 1), (2, 1)), ((2, 1), (1, 1)), ((0, 3), (1, 3)), ((1, 3), (0, 3)), ((1, 3), (2, 3)), ((2, 3), (1, 3)), ((2, 0), (2, 1)), ((2, 1), (2, 0)), ((0, 1), (0, 2)), ((0, 2), (0, 1)), ((2, 0), (3, 0)), ((3, 0), (2, 0)), ((1, 0), (2, 0)), ((2, 0), (1, 0)), ((2, 1), (3, 1)), ((3, 1), (2, 1)), ((1, 2), (2, 2)), ((2, 2), (1, 2)), ((0, 1), (1, 1)), ((1, 1), (0, 1)), ((2, 2), (3, 2)), ((3, 2), (2, 2)), ((0, 2), (1, 2)), ((1, 2), (0, 2)), ((0, 0), (1, 0)), ((1, 0), (0, 0)), ((3, 0), (3, 1)), ((3, 1), (3, 0))]",3,3,0.8388
003,2,21,"(1, 0)","(2, 3)",17,2,5,"[((1, 1), (2, 1)), ((2, 1), (1, 1)), ((0, 0), (1, 0)), ((1, 0), (0, 0)), ((2, 0), (2, 1)), ((2, 1), (2, 0)), ((0, 2), (1, 2)), ((1, 2), (0, 2)), ((2, 2), (3, 2)), ((3, 2), (2, 2)), ((2, 2), (2, 3)), ((2, 3), (2, 2)), ((3, 1), (3, 2)), ((3, 2), (3, 1)), ((3, 2), (3, 3)), ((3, 3), (3, 2)), ((1, 3), (2, 3)), ((2, 3), (1, 3)), ((2, 0), (3, 0)), ((3, 0), (2, 0)), ((1, 1), (1, 2)), ((1, 2), (1, 1)), ((0, 3), (1, 3)), ((1, 3), (0, 3)), ((1, 0), (1, 1)), ((1, 1), (1, 0)), ((1, 2), (2, 2)), ((2, 2), (1, 2)), ((2, 3), (3, 3)), ((3, 3), (2, 3)), ((0, 0), (0, 1)), ((0, 1), (0, 0)), ((2, 1), (3, 1)), ((3, 1), (2, 1))]",4,3,1.1383
003,2,22,"(3, 2)","(0, 1)",18,3,5,"[((2, 0), (2, 1)), ((2, 1), (2, 0)), ((0, 2), (0, 3)), ((0, 3), (0, 2)), ((1, 0), (2, 0)), ((2, 0), (1, 0)), ((1, 1), (2, 1)), ((2, 1), (1, 1)), ((0, 1), (0, 2)), ((0, 2), (0, 1)), ((0, 0), (1, 0)), ((1, 0), (0, 0)), ((2, 3), (3, 3)), ((3, 3), (2, 3)), ((0, 0), (0, 1)), ((0, 1), (0, 0)), ((1, 0), (1, 1)), ((1, 1), (1, 0)), ((1, 1), (1, 2)), ((1, 2), (1, 1)), ((1, 2), (2, 2)), ((2, 2), (1, 2)), ((3, 1), (3, 2)), ((3, 2), (3, 1)), ((2, 0), (3, 0)), ((3, 0), (2, 0)), ((3, 0), (3, 1)), ((3, 1), (3, 0)), ((1, 2), (1, 3)), ((1, 3), (1, 2)), ((3, 2), (3, 3)), ((3, 3), (3, 2)), ((1, 3), (2, 3)), ((2, 3), (1, 3)), ((2, 1), (2, 2)), ((2, 2), (2, 1))]",7,4,1.0845
003,2,23,"(0, 1)","(3, 2)",17,2,5,"[((1, 0), (2, 0)), ((2, 0), (1, 0)), ((2, 0), (3, 0)), ((3, 0), (2, 0)), ((2, 3), (3, 3)), ((3, 3), (2, 3)), ((0, 2), (0, 3)), ((0, 3), (0, 2)), ((0, 0), (1, 0)), ((1, 0), (0, 0)), ((0, 1), (0, 2)), ((0, 2), (0, 1)), ((1, 1), (2, 1)), ((2, 1), (1, 1)), ((3, 1), (3, 2)), ((3, 2), (3, 1)), ((2, 0), (2, 1)), ((2, 1), (2, 0)), ((3, 2), (3, 3)), ((3, 3), (3, 2)), ((1, 2), (2, 2)), ((2, 2), (1, 2)), ((1, 1), (1, 2)), ((1, 2), (1, 1)), ((1, 0), (1, 1)), ((1, 1), (1, 0)), ((2, 2), (2, 3)), ((2, 3), (2, 2)), ((1, 2), (1, 3)), ((1, 3), (1, 2)), ((0, 3), (1, 3)), ((1, 3), (0, 3)), ((2, 1), (3, 1)), ((3, 1), (2, 1))]",3,3,1.1385
003,2,24,"(0, 1)","(3, 2)",18,3,5,"[((0, 1), (1, 1)), ((1, 1), (0, 1)), ((1, 2), (1, 3)), ((1, 3), (1, 2)), ((3, 0), (3, 1)), ((3, 1), (3, 0)), ((1, 2), (2, 2)), ((2, 2), (1, 2)), ((2, 3), (3, 3)), ((3, 3), (2, 3)), ((2, 2), (3, 2)), ((3, 2), (2, 2)), ((3, 2), (3, 3)), ((3, 3), (3, 2)), ((1, 1), (2, 1)), ((2, 1), (1, 1)), ((0, 3), (1, 3)), ((1, 3), (0, 3)), ((0, 2), (0, 3)), ((0, 3), (0, 2)), ((0, 0), (0, 1)), ((0, 1), (0, 0)), ((0, 0), (1, 0)), ((1, 0), (0, 0)), ((2, 1), (3, 1)), ((3, 1), (2, 1)), ((0, 1), (0, 2)), ((0, 2), (0, 1)), ((2, 0), (2, 1)), ((2, 1), (2, 0)), ((2, 2), (2, 3)), ((2, 3), (2, 2)), ((2, 1), (2, 2)), ((2, 2), (2, 1)), ((3, 1), (3, 2)), ((3, 2), (3, 1))]",6,5,1.356
003,2,25,"(0, 1)","(3, 2)",16,1,5,"[((2, 1), (3, 1)), ((3, 1), (2, 1)), ((0, 2), (0, 3)), ((0, 3), (0, 2)), ((2, 2), (2, 3)), ((2, 3), (2, 2)), ((2, 1), (2, 2)), ((2, 2), (2, 1)), ((1, 2), (1, 3)), ((1, 3), (1, 2)), ((0, 0), (1, 0)), ((1, 0), (0, 0)), ((3, 0), (3, 1)), ((3, 1), (3, 0)), ((2, 2), (3, 2)), ((3, 2), (2, 2)), ((1, 2), (2, 2)), ((2, 2), (1, 2)), ((0, 0), (0, 1)), ((0, 1), (0, 0)), ((3, 2), (3, 3)), ((3, 3), (3, 2)), ((0, 3), (1, 3)), ((1, 3), (0, 3)), ((2, 0), (3, 0)), ((3, 0), (2, 0)), ((1, 1), (2, 1)), ((2, 1), (1, 1)), ((0, 1), (0, 2)), ((0, 2), (0, 1)), ((1, 1), (1, 2)), ((1, 2), (1, 1))]",2,2,1.171
003,2,26,"(0, 1)","(3, 2)",18,3,5,"[((0, 1), (1, 1)), ((1, 1), (0, 1)), ((2, 1), (3, 1)), ((3, 1), (2, 1)), ((1, 3), (2, 3)), ((2, 3), (1, 3)), ((3, 1), (3, 2)), ((3, 2), (3, 1)), ((2, 0), (3, 0)), ((3, 0), (2, 0)), ((1, 1), (1, 2)), ((1, 2), (1, 1)), ((2, 0), (2, 1)), ((2, 1), (2, 0)), ((2, 2), (3, 2)), ((3, 2), (2, 2)), ((0, 0), (1, 0)), ((1, 0), (0, 0)), ((0, 1), (0, 2)), ((0, 2), (0, 1)), ((0, 3), (1, 3)), ((1, 3), (0, 3)), ((3, 0), (3, 1)), ((3, 1), (3, 0)), ((1, 2), (1, 3)), ((1, 3), (1, 2)), ((1, 0), (2, 0)), ((2, 0), (1, 0)), ((0, 0), (0, 1)), ((0, 1), (0, 0)), ((1, 1), (2, 1)), ((2, 1), (1, 1)), ((2, 3), (3, 3)), ((3, 3), (2, 3)), ((1, 2), (2, 2)), ((2, 2), (1, 2))]",7,4,1.3014
003,2,27,"(1, 3)","(2, 0)",16,1,5,"[((0, 3), (1, 3)), ((1, 3), (0, 3)), ((1, 1), (1, 2)), ((1, 2), (1, 1)), ((1, 0), (1, 1)), ((1, 1), (1, 0)), ((0, 1), (1, 1)), ((1, 1), (0, 1)), ((1, 2), (1, 3)), ((1, 3), (1, 2)), ((2, 1), (2, 2)), ((2, 2), (2, 1)), ((0, 2), (0, 3)), ((0, 3), (0, 2)), ((1, 3), (2, 3)), ((2, 3), (1, 3)), ((2, 0), (2, 1)), ((2, 1), (2, 0)), ((1, 0), (2, 0)), ((2, 0), (1, 0)), ((3, 0), (3, 1)), ((3, 1), (3, 0)), ((2, 1), (3, 1)), ((3, 1), (2, 1)), ((2, 2), (3, 2)), ((3, 2), (2, 2)), ((2, 3), (3, 3)), ((3, 3), (2, 3)), ((1, 1), (2, 1)), ((2, 1), (1, 1)), ((0, 0), (0, 1)), ((0, 1), (0, 0))]",2,2,0.934
003,2,28,"(1, 0)","(2, 3)",16,1,5,"[((2, 2), (2, 3)), ((2, 3), (2, 2)), ((1, 1), (1, 2)), ((1, 2), (1, 1)), ((2, 1), (2, 2)), ((2, 2), (2, 1)), ((2, 0), (2, 1)), ((2, 1), (2, 0)), ((2, 0), (3, 0)), ((3, 0), (2, 0)), ((0, 0), (1, 0)), ((1, 0), (0, 0)), ((2, 2), (3, 2)), ((3, 2), (2, 2)), ((1, 2), (1, 3)), ((1, 3), (1, 2)), ((0, 3), (1, 3)), ((1, 3), (0, 3)), ((3, 0), (3, 1)), ((3, 1), (3, 0)), ((0, 0), (0, 1)), ((0, 1), (0, 0)), ((0, 2), (0, 3)), ((0, 3), (0, 2)), ((0, 2), (1, 2)), ((1, 2), (0, 2)), ((0, 1), (1, 1)), ((1, 1), (0, 1)), ((2, 3), (3, 3)), ((3, 3), (2, 3)), ((1, 0), (2, 0)), ((2, 0), (1, 0))]",1,1,0.3857
003,2,29,"(1, 0)","(2, 3)",17,2,5,"[((1, 1), (1, 2)), ((1, 2), (1, 1)), ((2, 2), (2, 3)), ((2, 3), (2, 2)), ((2, 1), (2, 2)), ((2, 2), (2, 1)), ((2, 0), (3, 0)), ((3, 0), (2, 0)), ((1, 0), (1, 1)), ((1, 1), (1, 0)), ((0, 2), (0, 3)), ((0, 3), (0, 2)), ((3, 2), (3, 3)), ((3, 3), (3, 2)), ((0, 1), (0, 2)), ((0, 2), (0, 1)), ((2, 2), (3, 2)), ((3, 2), (2, 2)), ((0, 0), (1, 0)), ((1, 0), (0, 0)), ((1, 0), (2, 0)), ((2, 0), (1, 0)), ((1, 3), (2, 3)), ((2, 3), (1, 3)), ((0, 0), (0, 1)), ((0, 1), (0, 0)), ((3, 1), (3, 2)), ((3, 2), (3, 1)), ((2, 0), (2, 1)), ((2, 1), (2, 0)), ((1, 1), (2, 1)), ((2, 1), (1, 1)), ((0, 2), (1, 2)), ((1, 2), (0, 2))]",5,2,0.9223
003,2,30,"(1, 0)","(2, 3)",18,3,5,"[((1, 2), (2, 2)), ((2, 2), (1, 2)), ((2, 2), (2, 3)), ((2, 3), (2, 2)), ((3, 0), (3, 1)), ((3, 1), (3, 0)), ((1, 1), (2, 1)), ((2, 1), (1, 1)), ((0, 0), (0, 1)), ((0, 1), (0, 0)), ((0, 1), (0, 2)), ((0, 2), (0, 1)), ((1, 0), (2, 0)), ((2, 0), (1, 0)), ((3, 1), (3, 2)), ((3, 2), (3, 1)), ((1, 0), (1, 1)), ((1, 1), (1, 0)), ((2, 1), (2, 2)), ((2, 2), (2, 1)), ((0, 2), (0, 3)), ((0, 3), (0, 2)), ((2, 3), (3, 3)), ((3, 3), (2, 3)), ((3, 2), (3, 3)), ((3, 3), (3, 2)), ((0, 0), (1, 0)), ((1, 0), (0, 0)), ((1, 2), (1, 3)), ((1, 3), (1, 2)), ((0, 3), (1, 3)), ((1, 3), (0, 3)), ((1, 3), (2, 3)), ((2, 3), (1, 3)), ((0, 2), (1, 2)), ((1, 2), (0, 2))]",7,4,0.9889
003,2,31,"(1, 0)","(2, 3)",16,1,5,"[((0, 2), (1, 2)), ((1, 2), (0, 2)), ((2, 1), (2, 2)), ((2, 2), (2, 1)), ((0, 0), (1, 0)), ((1, 0), (0, 0)), ((1, 3), (2, 3)), ((2, 3), (1, 3)), ((1, 2), (2, 2)), ((2, 2), (1, 2)), ((0, 1), (1, 1)), ((1, 1), (0, 1)), ((1, 1), (1, 2)), ((1, 2), (1, 1)), ((2, 2), (3, 2)), ((3, 2), (2, 2)), ((2, 0), (3, 0)), ((3, 0), (2, 0)), ((2, 1), (3, 1)), ((3, 1), (2, 1)), ((2, 3), (3, 3)), ((3, 3), (2, 3)), ((1, 0), (2, 0)), ((2, 0), (1, 0)), ((1, 2), (1, 3)), ((1, 3), (1, 2)), ((1, 1), (2, 1)), ((2, 1), (1, 1)), ((0, 3), (1, 3)), ((1, 3), (0, 3)), ((3, 0), (3, 1)), ((3, 1), (3, 0))]",2,3,1.2726
003,2,32,"(1, 0)","(2, 3)",17,2,5,"[((0, 1), (0, 2)), ((0, 2), (0, 1)), ((1, 3), (2, 3)), ((2, 3), (1, 3)), ((1, 1), (2, 1)), ((2, 1), (1, 1)), ((2, 1), (2, 2)), ((2, 2), (2, 1)), ((0, 2), (0, 3)), ((0, 3), (0, 2)), ((0, 2), (1, 2)), ((1, 2), (0, 2)), ((3, 2), (3, 3)), ((3, 3), (3, 2)), ((0, 3), (1, 3)), ((1, 3), (0, 3)), ((2, 2), (2, 3)), ((2, 3), (2, 2)), ((2, 3), (3, 3)), ((3, 3), (2, 3)), ((1, 0), (2, 0)), ((2, 0), (1, 0)), ((3, 0), (3, 1)), ((3, 1), (3, 0)), ((1, 2), (1, 3)), ((1, 3), (1, 2)), ((2, 1), (3, 1)), ((3, 1), (2, 1)), ((0, 0), (1, 0)), ((1, 0), (0, 0)), ((0, 0), (0, 1)), ((0, 1), (0, 0)), ((2, 0), (2, 1)), ((2, 1), (2, 0))]",3,3,0.6832
003,2,33,"(1, 0)","(2, 3)",16,1,5,"[((1, 3), (2, 3)), ((2, 3), (1, 3)), ((2, 0), (3, 0)), ((3, 0), (2, 0)), ((0, 0), (0, 1)), ((0, 1), (0, 0)), ((1, 0), (1, 1)), ((1, 1), (1, 0)), ((1, 0), (2, 0)), ((2, 0), (1, 0)), ((2, 2), (2, 3)), ((2, 3), (2, 2)), ((0, 1), (1, 1)), ((1, 1), (0, 1)), ((0, 1), (0, 2)), ((0, 2), (0, 1)), ((2, 1), (3, 1)), ((3, 1), (2, 1)), ((2, 3), (3, 3)), ((3, 3), (2, 3)), ((2, 1), (2, 2)), ((2, 2), (2, 1)), ((0, 2), (0, 3)), ((0, 3), (0, 2)), ((3, 0), (3, 1)), ((3, 1), (3, 0)), ((1, 1), (1, 2)), ((1, 2), (1, 1)), ((2, 2), (3, 2)), ((3, 2), (2, 2)), ((2, 0), (2, 1)), ((2, 1), (2, 0))]",2,2,0.9035
003,2,34,"(1, 3)","(2, 0)",16,1,5,"[((3, 2), (3, 3)), ((3, 3), (3, 2)), ((2, 0), (3, 0)), ((3, 0), (2, 0)), ((0, 1), (1, 1)), ((1, 1), (0, 1)), ((0, 2), (0, 3)), ((0, 3), (0, 2)), ((2, 2), (3, 2)), ((3, 2), (2, 2)), ((0, 2), (1, 2)), ((1, 2), (0, 2)), ((1, 2), (2, 2)), ((2, 2), (1, 2)), ((1, 1), (2, 1)), ((2, 1), (1, 1)), ((2, 2), (2, 3)), ((2, 3), (2, 2)), ((3, 0), (3, 1)), ((3, 1), (3, 0)), ((2, 0), (2, 1)), ((2, 1), (2, 0)), ((0, 1), (0, 2)), ((0, 2), (0, 1)), ((0, 0), (1, 0)), ((1, 0), (0, 0)), ((1, 2), (1, 3)), ((1, 3), (1, 2)), ((1, 0), (1, 1)), ((1, 1), (1, 0)), ((3, 1), (3, 2)), ((3, 2), (3, 1))]",2,2,0.4994
003,2,35,"(1, 3)","(2, 0)",16,1,5,"[((1, 0), (1, 1)), ((1, 1), (1, 0)), ((2, 3), (3, 3)), ((3, 3), (2, 3)), ((1, 2), (1, 3)), ((1, 3), (1, 2)), ((0, 1), (0, 2)), ((0, 2), (0, 1)), ((2, 1), (2, 2)), ((2, 2), (2, 1)), ((3, 0), (3, 1)), ((3, 1), (3, 0)), ((3, 1), (3, 2)), ((3, 2), (3, 1)), ((1, 2), (2, 2)), ((2, 2), (1, 2)), ((1, 1), (2, 1)), ((2, 1), (1, 1)), ((2, 2), (3, 2)), ((3, 2), (2, 2)), ((0, 0), (0, 1)), ((0, 1), (0, 0)), ((3, 2), (3, 3)), ((3, 3), (3, 2)), ((0, 3), (1, 3)), ((1, 3), (0, 3)), ((0, 2), (1, 2)), ((1, 2), (0, 2)), ((2, 2), (2, 3)), ((2, 3), (2, 2)), ((1, 0), (2, 0)), ((2, 0), (1, 0))]",3,2,0.8864
003,2,36,"(0, 2)","(3, 1)",17,2,5,"[((0, 2), (1, 2)), ((1, 2), (0, 2)), ((1, 2), (2, 2)), ((2, 2), (1, 2)), ((1, 0), (2, 0)), ((2, 0), (1, 0)), ((0, 2), (0, 3)), ((0, 3), (0, 2)), ((3, 2), (3, 3)), ((3, 3), (3, 2)), ((2, 0), (3, 0)), ((3, 0), (2, 0)), ((2, 1), (2, 2)), ((2, 2), (2, 1)), ((1, 2), (1, 3)), ((1, 3), (1, 2)), ((0, 0), (0, 1)), ((0, 1), (0, 0)), ((0, 0), (1, 0)), ((1, 0), (0, 0)), ((1, 1), (1, 2)), ((1, 2), (1, 1)), ((1, 1), (2, 1)), ((2, 1), (1, 1)), ((1, 3), (2, 3)), ((2, 3), (1, 3)), ((2, 3), (3, 3)), ((3, 3), (2, 3)), ((2, 0), (2, 1)), ((2, 1), (2, 0)), ((1, 0), (1, 1)), ((1, 1), (1, 0)), ((3, 1), (3, 2)), ((3, 2), (3, 1))]",5,3,1.4844
003,2,37,"(0, 2)","(3, 1)",16,1,5,"[((0, 2), (1, 2)), ((1, 2), (0, 2)), ((2, 0), (2, 1)), ((2, 1), (2, 0)), ((1, 1), (2, 1)), ((2, 1), (1, 1)), ((2, 3), (3, 3)), ((3, 3), (2, 3)), ((1, 0), (2, 0)), ((2, 0), (1, 0)), ((1, 3), (2, 3)), ((2, 3), (1, 3)), ((1, 2), (1, 3)), ((1, 3), (1, 2)), ((0, 3), (1, 3)), ((1, 3), (0, 3)), ((0, 0), (1, 0)), ((1, 0), (0, 0)), ((1, 0), (1, 1)), ((1, 1), (1, 0)), ((2, 1), (2, 2)), ((2, 2), (2, 1)), ((0, 1), (1, 1)), ((1, 1), (0, 1)), ((3, 0), (3, 1)), ((3, 1), (3, 0)), ((2, 1), (3, 1)), ((3, 1), (2, 1)), ((3, 1), (3, 2)), ((3, 2), (3, 1)), ((3, 2), (3, 3)), ((3, 3), (3, 2))]",1,1,0.3363
003,2,38,"(0, 2)","(3, 1)",15,0,5,"[((3, 0), (3, 1)), ((3, 1), (3, 0)), ((2, 0), (2, 1)), ((2, 1), (2, 0)), ((2, 1), (2, 2)), ((2, 2), (2, 1)), ((0, 0), (1, 0)), ((1, 0), (0, 0)), ((0, 1), (0, 2)), ((0, 2), (0, 1)), ((1, 3), (2, 3)), ((2, 3), (1, 3)), ((1, 1), (2, 1)), ((2, 1), (1, 1)), ((2, 2), (3, 2)), ((3, 2), (2, 2)), ((2, 3), (3, 3)), ((3, 3), (2, 3)), ((3, 1), (3, 2)), ((3, 2), (3, 1)), ((3, 2), (3, 3)), ((3, 3), (3, 2)), ((0, 3), (1, 3)), ((1, 3), (0, 3)), ((0, 2), (1, 2)), ((1, 2), (0, 2)), ((0, 0), (0, 1)), ((0, 1), (0, 0)), ((1, 2), (1, 3)), ((1, 3), (1, 2))]",1,1,0.9315
003,2,39,"(0, 1)","(3, 2)",16,1,5,"[((0, 2), (1, 2)), ((1, 2), (0, 2)), ((2, 2), (3, 2)), ((3, 2), (2, 2)), ((2, 0), (3, 0)), ((3, 0), (2, 0)), ((1, 2), (2, 2)), ((2, 2), (1, 2)), ((0, 1), (0, 2)), ((0, 2), (0, 1)), ((0, 3), (1, 3)), ((1, 3), (0, 3)), ((3, 2), (3, 3)), ((3, 3), (3, 2)), ((0, 1), (1, 1)), ((1, 1), (0, 1)), ((2, 2), (2, 3)), ((2, 3), (2, 2)), ((2, 0), (2, 1)), ((2, 1), (2, 0)), ((2, 1), (3, 1)), ((3, 1), (2, 1)), ((1, 0), (1, 1)), ((1, 1), (1, 0)), ((2, 1), (2, 2)), ((2, 2), (2, 1)), ((0, 0), (0, 1)), ((0, 1), (0, 0)), ((0, 2), (0, 3)), ((0, 3), (0, 2)), ((0, 0), (1, 0)), ((1, 0), (0, 0))]",3,1,0.8209
003,2,40,"(1, 0)","(2, 3)",16,1,5,"[((2, 2), (3, 2)), ((3, 2), (2, 2)), ((1, 0), (1, 1)), ((1, 1), (1, 0)), ((1, 0), (2, 0)), ((2, 0), (1, 0)), ((2, 0), (2, 1)), ((2, 1), (2, 0)), ((1, 2), (1, 3)), ((1, 3), (1, 2)), ((0, 3), (1, 3)), ((1, 3), (0, 3)), ((3, 0), (3, 1)), ((3, 1), (3, 0)), ((2, 3), (3, 3)), ((3, 3), (2, 3)), ((1, 3), (2, 3)), ((2, 3), (1, 3)), ((0, 0), (0, 1)), ((0, 1), (0, 0)), ((2, 0), (3, 0)), ((3, 0), (2, 0)), ((3, 2), (3, 3)), ((3, 3), (3, 2)), ((3, 1), (3, 2)), ((3, 2), (3, 1)), ((0, 2), (0, 3)), ((0, 3), (0, 2)), ((0, 2), (1, 2)), ((1, 2), (0, 2)), ((0, 1), (0, 2)), ((0, 2), (0, 1))]",1,1,0.3353
003,2,41,"(3, 2)","(0, 1)",17,2,5,"[((2, 1), (3, 1)), ((3, 1), (2, 1)), ((0, 1), (0, 2)), ((0, 2), (0, 1)), ((1, 2), (2, 2)), ((2, 2), (1, 2)), ((2, 3), (3, 3)), ((3, 3), (2, 3)), ((1, 3), (2, 3)), ((2, 3), (1, 3)), ((0, 0), (1, 0)), ((1, 0), (0, 0)), ((0, 1), (1, 1)), ((1, 1), (0, 1)), ((1, 1), (1, 2)), ((1, 2), (1, 1)), ((0, 2), (1, 2)), ((1, 2), (0, 2)), ((3, 0), (3, 1)), ((3, 1), (3, 0)), ((2, 0), (3, 0)), ((3, 0), (2, 0)), ((2, 2), (2, 3)), ((2, 3), (2, 2)), ((2, 1), (2, 2)), ((2, 2), (2, 1)), ((0, 0), (0, 1)), ((0, 1), (0, 0)), ((1, 0), (2, 0)), ((2, 0), (1, 0)), ((3, 1), (3, 2)), ((3, 2), (3, 1)), ((0, 3), (1, 3)), ((1, 3), (0, 3))]",3,3,0.3721
003,2,42,"(0, 2)","(3, 1)",18,3,5,"[((0, 1), (0, 2)), ((0, 2), (0, 1)), ((3, 2), (3, 3)), ((3, 3), (3, 2)), ((0, 2), (0, 3)), ((0, 3), (0, 2)), ((3, 1), (3, 2)), ((3, 2), (3, 1)), ((3, 0), (3, 1)), ((3, 1), (3, 0)), ((2, 3), (3, 3)), ((3, 3), (2, 3)), ((1, 3), (2, 3)), ((2, 3), (1, 3)), ((2, 1), (2, 2)), ((2, 2), (2, 1)), ((2, 0), (2, 1)), ((2, 1), (2, 0)), ((0, 0), (0, 1)), ((0, 1), (0, 0)), ((1, 0), (2, 0)), ((2, 0), (1, 0)), ((0, 0), (1, 0)), ((1, 0), (0, 0)), ((1, 2), (2, 2)), ((2, 2), (1, 2)), ((2, 1), (3, 1)), ((3, 1), (2, 1)), ((0, 1), (1, 1)), ((1, 1), (0, 1)), ((2, 2), (3, 2)), ((3, 2), (2, 2)), ((1, 1), (2, 1)), ((2, 1), (1, 1)), ((2, 0), (3, 0)), ((3, 0), (2, 0))]",6,4,1.3042
003,2,43,"(3, 2)","(0, 1)",17,2,5,"[((2, 0), (3, 0)), ((3, 0), (2, 0)), ((0, 0), (1, 0)), ((1, 0), (0, 0)), ((2, 2), (2, 3)), ((2, 3), (2, 2)), ((1, 2), (1, 3)), ((1, 3), (1, 2)), ((3, 1), (3, 2)), ((3, 2), (3, 1)), ((1, 0), (2, 0)), ((2, 0), (1, 0)), ((1, 2), (2, 2)), ((2, 2), (1, 2)), ((3, 0), (3, 1)), ((3, 1), (3, 0)), ((1, 1), (1, 2)), ((1, 2), (1, 1)), ((0, 2), (1, 2)), ((1, 2), (0, 2)), ((0, 1), (0, 2)), ((0, 2), (0, 1)), ((1, 0), (1, 1)), ((1, 1), (1, 0)), ((0, 1), (1, 1)), ((1, 1), (0, 1)), ((0, 2), (0, 3)), ((0, 3), (0, 2)), ((2, 1), (3, 1)), ((3, 1), (2, 1)), ((2, 3), (3, 3)), ((3, 3), (2, 3)), ((1, 1), (2, 1)), ((2, 1), (1, 1))]",4,3,0.9728
003,2,44,"(3, 1)","(0, 2)",17,2,5,"[((2, 2), (2, 3)), ((2, 3), (2, 2)), ((3, 0), (3, 1)), ((3, 1), (3, 0)), ((1, 1), (2, 1)), ((2, 1), (1, 1)), ((2, 0), (3, 0)), ((3, 0), (2, 0)), ((1, 3), (2, 3)), ((2, 3), (1, 3)), ((2, 2), (3, 2)), ((3, 2), (2, 2)), ((1, 2), (2, 2)), ((2, 2), (1, 2)), ((1, 2), (1, 3)), ((1, 3), (1, 2)), ((2, 0), (2, 1)), ((2, 1), (2, 0)), ((0, 2), (0, 3)), ((0, 3), (0, 2)), ((3, 1), (3, 2)), ((3, 2), (3, 1)), ((1, 0), (2, 0)), ((2, 0), (1, 0)), ((3, 2), (3, 3)), ((3, 3), (3, 2)), ((0, 1), (1, 1)), ((1, 1), (0, 1)), ((0, 3), (1, 3)), ((1, 3), (0, 3)), ((2, 1), (3, 1)), ((3, 1), (2, 1)), ((0, 0), (0, 1)), ((0, 1), (0, 0))]",6,2,0.6521
003,2,45,"(3, 1)","(0, 2)",17,2,5,"[((0, 1), (0, 2)), ((0, 2), (0, 1)), ((2, 0), (3, 0)), ((3, 0), (2, 0)), ((0, 2), (0, 3)), ((0, 3), (0, 2)), ((1, 1), (2, 1)), ((2, 1), (1, 1)), ((3, 2), (3, 3)), ((3, 3), (3, 2)), ((2, 2), (2, 3)), ((2, 3), (2, 2)), ((1, 0), (2, 0)), ((2, 0), (1, 0)), ((0, 1), (1, 1)), ((1, 1), (0, 1)), ((2, 3), (3, 3)), ((3, 3), (2, 3)), ((1, 2), (1, 3)), ((1, 3), (1, 2)), ((1, 3), (2, 3)), ((2, 3), (1, 3)), ((1, 1), (1, 2)), ((1, 2), (1, 1)), ((1, 2), (2, 2)), ((2, 2), (1, 2)), ((2, 2), (3, 2)), ((3, 2), (2, 2)), ((1, 0), (1, 1)), ((1, 1), (1, 0)), ((3, 0), (3, 1)), ((3, 1), (3, 0)), ((0, 0), (1, 0)), ((1, 0), (0, 0))]",1,1,0.4831
003,2,46,"(3, 1)","(0, 2)",18,3,5,"[((3, 0), (3, 1)), ((3, 1), (3, 0)), ((2, 0), (3, 0)), ((3, 0), (2, 0)), ((2, 1), (2, 2)), ((2, 2), (2, 1)), ((0, 0), (1, 0)), ((1, 0), (0, 0)), ((1, 0), (2, 0)), ((2, 0), (1, 0)), ((0, 1), (1, 1)), ((1, 1), (0, 1)), ((1, 3), (2, 3)), ((2, 3), (1, 3)), ((0, 1), (0, 2)), ((0, 2), (0, 1)), ((0, 2), (0, 3)), ((0, 3), (0, 2)), ((1, 2), (2, 2)), ((2, 2), (1, 2)), ((1, 1), (1, 2)), ((1, 2), (1, 1)), ((0, 0), (0, 1)), ((0, 1), (0, 0)), ((2, 2), (2, 3)), ((2, 3), (2, 2)), ((1, 1), (2, 1)), ((2, 1), (1, 1)), ((0, 2), (1, 2)), ((1, 2), (0, 2)), ((0, 3), (1, 3)), ((1, 3), (0, 3)), ((3, 1), (3, 2)), ((3, 2), (3, 1)), ((3, 2), (3, 3)), ((3, 3), (3, 2))]",5,4,1.0198
003,2,47,"(2, 3)","(1, 0)",17,2,5,"[((0, 1), (0, 2)), ((0, 2), (0, 1)), ((1, 1), (2, 1)), ((2, 1), (1, 1)), ((2, 1), (2, 2)), ((2, 2), (2, 1)), ((0, 1), (1, 1)), ((1, 1), (0, 1)), ((3, 1), (3, 2)), ((3, 2), (3, 1)), ((2, 2), (3, 2)), ((3, 2), (2, 2)), ((1, 0), (2, 0)), ((2, 0), (1, 0)), ((2, 3), (3, 3)), ((3, 3), (2, 3)), ((1, 1), (1, 2)), ((1, 2), (1, 1)), ((3, 0), (3, 1)), ((3, 1), (3, 0)), ((3, 2), (3, 3)), ((3, 3), (3, 2)), ((2, 1), (3, 1)), ((3, 1), (2, 1)), ((1, 3), (2, 3)), ((2, 3), (1, 3)), ((1, 0), (1, 1)), ((1, 1), (1, 0)), ((0, 2), (0, 3)), ((0, 3), (0, 2)), ((0, 0), (0, 1)), ((0, 1), (0, 0)), ((2, 2), (2, 3)), ((2, 3), (2, 2))]",4,3,1.3946
003,2,48,"(0, 2)","(3, 1)",16,1,5,"[((0, 2), (1, 2)), ((1, 2), (0, 2)), ((1, 2), (1, 3)), ((1, 3), (1, 2)), ((2, 0), (3, 0)), ((3, 0), (2, 0)), ((0, 1), (1, 1)), ((1, 1), (0, 1)), ((1, 1), (1, 2)), ((1, 2), (1, 1)), ((3, 2), (3, 3)), ((3, 3), (3, 2)), ((1, 2), (2, 2)), ((2, 2), (1, 2)), ((2, 3), (3, 3)), ((3, 3), (2, 3)), ((0, 0), (1, 0)), ((1, 0), (0, 0)), ((2, 0), (2, 1)), ((2, 1), (2, 0)), ((3, 0), (3, 1)), ((3, 1), (3, 0)), ((1, 1), (2, 1)), ((2, 1), (1, 1)), ((0, 0), (0, 1)), ((0, 1), (0, 0)), ((0, 3), (1, 3)), ((1, 3), (0, 3)), ((1, 0), (1, 1)), ((1, 1), (1, 0)), ((2, 2), (3, 2)), ((3, 2), (2, 2))]",3,1,1.7031
003,2,49,"(2, 3)","(1, 0)",18,3,5,"[((1, 0), (2, 0)), ((2, 0), (1, 0)), ((2, 2), (3, 2)), ((3, 2), (2, 2)), ((1, 2), (1, 3)), ((1, 3), (1, 2)), ((0, 3), (1, 3)), ((1, 3), (0, 3)), ((3, 2), (3, 3)), ((3, 3), (3, 2)), ((1, 1), (2, 1)), ((2, 1), (1, 1)), ((0, 1), (1, 1)), ((1, 1), (0, 1)), ((1, 2), (2, 2)), ((2, 2), (1, 2)), ((0, 2), (1, 2)), ((1, 2), (0, 2)), ((2, 0), (3, 0)), ((3, 0), (2, 0)), ((1, 1), (1, 2)), ((1, 2), (1, 1)), ((2, 3), (3, 3)), ((3, 3), (2, 3)), ((0, 2), (0, 3)), ((0, 3), (0, 2)), ((2, 1), (3, 1)), ((3, 1), (2, 1)), ((2, 1), (2, 2)), ((2, 2), (2, 1)), ((2, 0), (2, 1)), ((2, 1), (2, 0)), ((0, 0), (0, 1)), ((0, 1), (0, 0)), ((0, 1), (0, 2)), ((0, 2), (0, 1))]",6,6,1.2214
003,2,50,"(2, 0)","(1, 3)",17,2,5,"[((1, 3), (2, 3)), ((2, 3), (1, 3)), ((0, 2), (0, 3)), ((0, 3), (0, 2)), ((3, 2), (3, 3)), ((3, 3), (3, 2)), ((2, 1), (3, 1)), ((3, 1), (2, 1)), ((2, 2), (3, 2)), ((3, 2), (2, 2)), ((0, 3), (1, 3)), ((1, 3), (0, 3)), ((1, 1), (1, 2)), ((1, 2), (1, 1)), ((1, 0), (1, 1)), ((1, 1), (1, 0)), ((2, 1), (2, 2)), ((2, 2), (2, 1)), ((0, 1), (1, 1)), ((1, 1), (0, 1)), ((2, 3), (3, 3)), ((3, 3), (2, 3)), ((3, 1), (3, 2)), ((3, 2), (3, 1)), ((1, 1), (2, 1)), ((2, 1), (1, 1)), ((2, 0), (2, 1)), ((2, 1), (2, 0)), ((0, 0), (0, 1)), ((0, 1), (0, 0)), ((2, 2), (2, 3)), ((2, 3), (2, 2)), ((2, 0), (3, 0)), ((3, 0), (2, 0))]",4,5,1.0712
003,2,51,"(1, 0)","(2, 3)",18,3,5,"[((2, 0), (3, 0)), ((3, 0), (2, 0)), ((2, 1), (3, 1)), ((3, 1), (2, 1)), ((0, 0), (1, 0)), ((1, 0), (0, 0)), ((1, 0), (1, 1)), ((1, 1), (1, 0)), ((2, 3), (3, 3)), ((3, 3), (2, 3)), ((3, 0), (3, 1)), ((3, 1), (3, 0)), ((0, 2), (1, 2)), ((1, 2), (0, 2)), ((1, 1), (2, 1)), ((2, 1), (1, 1)), ((0, 2), (0, 3)), ((0, 3), (0, 2)), ((0, 3), (1, 3)), ((1, 3), (0, 3)), ((1, 1), (1, 2)), ((1, 2), (1, 1)), ((2, 1), (2, 2)), ((2, 2), (2, 1)), ((0, 1), (1, 1)), ((1, 1), (0, 1)), ((2, 2), (2, 3)), ((2, 3), (2, 2)), ((1, 2), (1, 3)), ((1, 3), (1, 2)), ((1, 0), (2, 0)), ((2, 0), (1, 0)), ((3, 2), (3, 3)), ((3, 3), (3, 2)), ((0, 0), (0, 1)), ((0, 1), (0, 0))]",5,4,1.0865
003,2,52,"(1, 3)","(2, 0)",18,3,5,"[((0, 3), (1, 3)), ((1, 3), (0, 3)), ((0, 0), (1, 0)), ((1, 0), (0, 0)), ((2, 0), (3, 0)), ((3, 0), (2, 0)), ((2, 0), (2, 1)), ((2, 1), (2, 0)), ((3, 0), (3, 1)), ((3, 1), (3, 0)), ((2, 3), (3, 3)), ((3, 3), (2, 3)), ((1, 1), (1, 2)), ((1, 2), (1, 1)), ((0, 0), (0, 1)), ((0, 1), (0, 0)), ((1, 3), (2, 3)), ((2, 3), (1, 3)), ((1, 0), (1, 1)), ((1, 1), (1, 0)), ((0, 2), (1, 2)), ((1, 2), (0, 2)), ((0, 2), (0, 3)), ((0, 3), (0, 2)), ((3, 1), (3, 2)), ((3, 2), (3, 1)), ((2, 1), (3, 1)), ((3, 1), (2, 1)), ((1, 0), (2, 0)), ((2, 0), (1, 0)), ((3, 2), (3, 3)), ((3, 3), (3, 2)), ((1, 1), (2, 1)), ((2, 1), (1, 1)), ((2, 2), (3, 2)), ((3, 2), (2, 2))]",6,4,1.0193
003,2,53,"(0, 2)","(3, 1)",17,2,5,"[((1, 0), (2, 0)), ((2, 0), (1, 0)), ((0, 2), (1, 2)), ((1, 2), (0, 2)), ((3, 2), (3, 3)), ((3, 3), (3, 2)), ((3, 0), (3, 1)), ((3, 1), (3, 0)), ((0, 2), (0, 3)), ((0, 3), (0, 2)), ((1, 1), (1, 2)), ((1, 2), (1, 1)), ((0, 0), (1, 0)), ((1, 0), (0, 0)), ((0, 0), (0, 1)), ((0, 1), (0, 0)), ((1, 2), (2, 2)), ((2, 2), (1, 2)), ((1, 3), (2, 3)), ((2, 3), (1, 3)), ((1, 2), (1, 3)), ((1, 3), (1, 2)), ((3, 1), (3, 2)), ((3, 2), (3, 1)), ((1, 0), (1, 1)), ((1, 1), (1, 0)), ((2, 3), (3, 3)), ((3, 3), (2, 3)), ((0, 3), (1, 3)), ((1, 3), (0, 3)), ((2, 1), (3, 1)), ((3, 1), (2, 1)), ((0, 1), (0, 2)), ((0, 2), (0, 1))]",5,3,0.8221
003,2,54,"(2, 0)","(1, 3)",17,2,5,"[((1, 2), (1, 3)), ((1, 3), (1, 2)), ((1, 2), (2, 2)), ((2, 2), (1, 2)), ((3, 2), (3, 3)), ((3, 3), (3, 2)), ((1, 1), (1, 2)), ((1, 2), (1, 1)), ((3, 1), (3, 2)), ((3, 2), (3, 1)), ((3, 0), (3, 1)), ((3, 1), (3, 0)), ((2, 2), (2, 3)), ((2, 3), (2, 2)), ((0, 2), (1, 2)), ((1, 2), (0, 2)), ((0, 3), (1, 3)), ((1, 3), (0, 3)), ((0, 1), (0, 2)), ((0, 2), (0, 1)), ((2, 0), (2, 1)), ((2, 1), (2, 0)), ((0, 0), (0, 1)), ((0, 1), (0, 0)), ((1, 1), (2, 1)), ((2, 1), (1, 1)), ((0, 1), (1, 1)), ((1, 1), (0, 1)), ((2, 1), (3, 1)), ((3, 1), (2, 1)), ((2, 3), (3, 3)), ((3, 3), (2, 3)), ((1, 0), (1, 1)), ((1, 1), (1, 0))]",5,3,1.0379
003,2,55,"(0, 1)","(3, 2)",15,0,5,"[((0, 3), (1, 3)), ((1, 3), (0, 3)), ((1, 2), (1, 3)), ((1, 3), (1, 2)), ((3, 1), (3, 2)), ((3, 2), (3, 1)), ((2, 0), (2, 1)), ((2, 1), (2, 0)), ((0, 2), (1, 2)), ((1, 2), (0, 2)), ((0, 0), (1, 0)), ((1, 0), (0, 0)), ((2, 2), (3, 2)), ((3, 2), (2, 2)), ((1, 2), (2, 2)), ((2, 2), (1, 2)), ((1, 3), (2, 3)), ((2, 3), (1, 3)), ((2, 1), (2, 2)), ((2, 2), (2, 1)), ((0, 0), (0, 1)), ((0, 1), (0, 0)), ((3, 2), (3, 3)), ((3, 3), (3, 2)), ((3, 0), (3, 1)), ((3, 1), (3, 0)), ((1, 0), (2, 0)), ((2, 0), (1, 0)), ((1, 0), (1, 1)), ((1, 1), (1, 0))]",1,1,0.6935
003,2,56,"(2, 3)","(1, 0)",16,1,5,"[((0, 2), (0, 3)), ((0, 3), (0, 2)), ((2, 3), (3, 3)), ((3, 3), (2, 3)), ((1, 2), (2, 2)), ((2, 2), (1, 2)), ((1, 3), (2, 3)), ((2, 3), (1, 3)), ((0, 0), (1, 0)), ((1, 0), (0, 0)), ((2, 0), (2, 1)), ((2, 1), (2, 0)), ((2, 2), (2, 3)), ((2, 3), (2, 2)), ((2, 0), (3, 0)), ((3, 0), (2, 0)), ((1, 1), (1, 2)), ((1, 2), (1, 1)), ((2, 2), (3, 2)), ((3, 2), (2, 2)), ((3, 1), (3, 2)), ((3, 2), (3, 1)), ((1, 2), (1, 3)), ((1, 3), (1, 2)), ((0, 0), (0, 1)), ((0, 1), (0, 0)), ((0, 1), (0, 2)), ((0, 2), (0, 1)), ((0, 1), (1, 1)), ((1, 1), (0, 1)), ((2, 1), (2, 2)), ((2, 2), (2, 1))]",2,2,0.7201
003,2,57,"(1, 0)","(2, 3)",15,0,5,"[((3, 0), (3, 1)), ((3, 1), (3, 0)), ((0, 2), (1, 2)), ((1, 2), (0, 2)), ((1, 1), (2, 1)), ((2, 1), (1, 1)), ((1, 2), (2, 2)), ((2, 2), (1, 2)), ((0, 0), (0, 1)), ((0, 1), (0, 0)), ((0, 2), (0, 3)), ((0, 3), (0, 2)), ((1, 3), (2, 3)), ((2, 3), (1, 3)), ((0, 0), (1, 0)), ((1, 0), (0, 0)), ((2, 3), (3, 3)), ((3, 3), (2, 3)), ((2, 1), (3, 1)), ((3, 1), (2, 1)), ((1, 0), (2, 0)), ((2, 0), (1, 0)), ((1, 1), (1, 2)), ((1, 2), (1, 1)), ((2, 2), (3, 2)), ((3, 2), (2, 2)), ((3, 2), (3, 3)), ((3, 3), (3, 2)), ((0, 1), (1, 1)), ((1, 1), (0, 1))]",1,1,0.7849
003,2,58,"(1, 3)","(2, 0)",18,3,5,"[((1, 0), (1, 1)), ((1, 1), (1, 0)), ((2, 3), (3, 3)), ((3, 3), (2, 3)), ((1, 3), (2, 3)), ((2, 3), (1, 3)), ((0, 0), (0, 1)), ((0, 1), (0, 0)), ((1, 2), (1, 3)), ((1, 3), (1, 2)), ((0, 3), (1, 3)), ((1, 3), (0, 3)), ((2, 0), (3, 0)), ((3, 0), (2, 0)), ((2, 2), (3, 2)), ((3, 2), (2, 2)), ((1, 1), (1, 2)), ((1, 2), (1, 1)), ((3, 0), (3, 1)), ((3, 1), (3, 0)), ((1, 2), (2, 2)), ((2, 2), (1, 2)), ((3, 1), (3, 2)), ((3, 2), (3, 1)), ((0, 2), (1, 2)), ((1, 2), (0, 2)), ((1, 0), (2, 0)), ((2, 0), (1, 0)), ((3, 2), (3, 3)), ((3, 3), (3, 2)), ((2, 1), (2, 2)), ((2, 2), (2, 1)), ((0, 1), (1, 1)), ((1, 1), (0, 1)), ((1, 1), (2, 1)), ((2, 1), (1, 1))]",7,3,0.8933
003,2,59,"(0, 1)","(3, 2)",18,3,5,"[((1, 2), (1, 3)), ((1, 3), (1, 2)), ((2, 2), (2, 3)), ((2, 3), (2, 2)), ((0, 0), (0, 1)), ((0, 1), (0, 0)), ((0, 0), (1, 0)), ((1, 0), (0, 0)), ((0, 2), (1, 2)), ((1, 2), (0, 2)), ((2, 2), (3, 2)), ((3, 2), (2, 2)), ((3, 0), (3, 1)), ((3, 1), (3, 0)), ((1, 3), (2, 3)), ((2, 3), (1, 3)), ((3, 2), (3, 3)), ((3, 3), (3, 2)), ((2, 0), (3, 0)), ((3, 0), (2, 0)), ((0, 2), (0, 3)), ((0, 3), (0, 2)), ((0, 1), (0, 2)), ((0, 2), (0, 1)), ((0, 1), (1, 1)), ((1, 1), (0, 1)), ((0, 3), (1, 3)), ((1, 3), (0, 3)), ((2, 1), (3, 1)), ((3, 1), (2, 1)), ((2, 0), (2, 1)), ((2, 1), (2, 0)), ((2, 3), (3, 3)), ((3, 3), (2, 3)), ((1, 0), (2, 0)), ((2, 0), (1, 0))]",4,4,1.0051
003,2,60,"(2, 3)","(1, 0)",15,0,5,"[((0, 3), (1, 3)), ((1, 3), (0, 3)), ((3, 1), (3, 2)), ((3, 2), (3, 1)), ((1, 2), (2, 2)), ((2, 2), (1, 2)), ((1, 2), (1, 3)), ((1, 3), (1, 2)), ((0, 0), (0, 1)), ((0, 1), (0, 0)), ((3, 0), (3, 1)), ((3, 1), (3, 0)), ((2, 2), (2, 3)), ((2, 3), (2, 2)), ((2, 0), (3, 0)), ((3, 0), (2, 0)), ((0, 1), (1, 1)), ((1, 1), (0, 1)), ((1, 0), (1, 1)), ((1, 1), (1, 0)), ((2, 3), (3, 3)), ((3, 3), (2, 3)), ((2, 1), (3, 1)), ((3, 1), (2, 1)), ((1, 0), (2, 0)), ((2, 0), (1, 0)), ((3, 2), (3, 3)), ((3, 3), (3, 2)), ((0, 2), (1, 2)), ((1, 2), (0, 2))]",1,1,0.386
003,2,61,"(1, 0)","(2, 3)",18,3,5,"[((2, 2), (3, 2)), ((3, 2), (2, 2)), ((3, 2), (3, 3)), ((3, 3), (3, 2)), ((2, 1), (3, 1)), ((3, 1), (2, 1)), ((0, 0), (1, 0)), ((1, 0), (0, 0)), ((1, 1), (2, 1)), ((2, 1), (1, 1)), ((1, 2), (2, 2)), ((2, 2), (1, 2)), ((0, 3), (1, 3)), ((1, 3), (0, 3)), ((1, 0), (1, 1)), ((1, 1), (1, 0)), ((2, 2), (2, 3)), ((2, 3), (2, 2)), ((0, 2), (1, 2)), ((1, 2), (0, 2)), ((2, 0), (2, 1)), ((2, 1), (2, 0)), ((0, 0), (0, 1)), ((0, 1), (0, 0)), ((1, 2), (1, 3)), ((1, 3), (1, 2)), ((1, 3), (2, 3)), ((2, 3), (1, 3)), ((2, 3), (3, 3)), ((3, 3), (2, 3)), ((0, 1), (1, 1)), ((1, 1), (0, 1)), ((2, 1), (2, 2)), ((2, 2), (2, 1)), ((3, 0), (3, 1)), ((3, 1), (3, 0))]",6,4,1.0366
003,2,62,"(2, 3)","(1, 0)",18,3,5,"[((2, 0), (3, 0)), ((3, 0), (2, 0)), ((1, 2), (1, 3)), ((1, 3), (1, 2)), ((0, 1), (0, 2)), ((0, 2), (0, 1)), ((2, 1), (2, 2)), ((2, 2), (2, 1)), ((1, 1), (1, 2)), ((1, 2), (1, 1)), ((1, 3), (2, 3)), ((2, 3), (1, 3)), ((0, 0), (1, 0)), ((1, 0), (0, 0)), ((1, 1), (2, 1)), ((2, 1), (1, 1)), ((0, 3), (1, 3)), ((1, 3), (0, 3)), ((3, 0), (3, 1)), ((3, 1), (3, 0)), ((2, 0), (2, 1)), ((2, 1), (2, 0)), ((2, 3), (3, 3)), ((3, 3), (2, 3)), ((2, 2), (2, 3)), ((2, 3), (2, 2)), ((0, 0), (0, 1)), ((0, 1), (0, 0)), ((0, 2), (0, 3)), ((0, 3), (0, 2)), ((1, 0), (2, 0)), ((2, 0), (1, 0)), ((1, 2), (2, 2)), ((2, 2), (1, 2)), ((2, 2), (3, 2)), ((3, 2), (2, 2))]",7,5,2.1199
003,2,63,"(3, 2)","(0, 1)",17,2,5,"[((2, 0), (2, 1)), ((2, 1), (2, 0)), ((0, 1), (1, 1)), ((1, 1), (0, 1)), ((1, 0), (2, 0)), ((2, 0), (1, 0)), ((1, 3), (2, 3)), ((2, 3), (1, 3)), ((0, 0), (0, 1)), ((0, 1), (0, 0)), ((2, 1), (2, 2)), ((2, 2), (2, 1)), ((2, 3), (3, 3)), ((3, 3), (2, 3)), ((0, 3), (1, 3)), ((1, 3), (0, 3)), ((1, 2), (1, 3)), ((1, 3), (1, 2)), ((2, 0), (3, 0)), ((3, 0), (2, 0)), ((3, 1), (3, 2)), ((3, 2), (3, 1)), ((1, 1), (1, 2)), ((1, 2), (1, 1)), ((0, 2), (0, 3)), ((0, 3), (0, 2)), ((2, 1), (3, 1)), ((3, 1), (2, 1)), ((1, 0), (1, 1)), ((1, 1), (1, 0)), ((3, 2), (3, 3)), ((3, 3), (3, 2)), ((1, 2), (2, 2)), ((2, 2), (1, 2))]",4,4,1.0362
003,3,1,"(3, 1)","(0, 2)",18,3,1,"[((0, 1), (1, 1)), ((1, 1), (0, 1)), ((1, 2), (2, 2)), ((2, 2), (1, 2)), ((1, 2), (1, 3)), ((1, 3), (1, 2)), ((0, 3), (1, 3)), ((1, 3), (0, 3)), ((2, 0), (3, 0)), ((3, 0), (2, 0)), ((2, 1), (2, 2)), ((2, 2), (2, 1)), ((3, 1), (3, 2)), ((3, 2), (3, 1)), ((0, 2), (0, 3)), ((0, 3), (0, 2)), ((0, 1), (0, 2)), ((0, 2), (0, 1)), ((1, 1), (1, 2)), ((1, 2), (1, 1)), ((0, 0), (1, 0)), ((1, 0), (0, 0)), ((2, 2), (2, 3)), ((2, 3), (2, 2)), ((0, 2), (1, 2)), ((1, 2), (0, 2)), ((2, 3), (3, 3)), ((3, 3), (2, 3)), ((0, 0), (0, 1)), ((0, 1), (0, 0)), ((1, 1), (2, 1)), ((2, 1), (1, 1)), ((1, 0), (2, 0)), ((2, 0), (1, 0)), ((3, 0), (3, 1)), ((3, 1), (3, 0))]",5,3,1.6859
003,3,2,"(1, 0)","(2, 3)",17,2,1,"[((2, 2), (2, 3)), ((2, 3), (2, 2)), ((2, 1), (3, 1)), ((3, 1), (2, 1)), ((1, 2), (1, 3)), ((1, 3), (1, 2)), ((1, 1), (1, 2)), ((1, 2), (1, 1)), ((2, 2), (3, 2)), ((3, 2), (2, 2)), ((0, 0), (0, 1)), ((0, 1), (0, 0)), ((1, 1), (2, 1)), ((2, 1), (1, 1)), ((0, 0), (1, 0)), ((1, 0), (0, 0)), ((2, 3), (3, 3)), ((3, 3), (2, 3)), ((3, 1), (3, 2)), ((3, 2), (3, 1)), ((1, 0), (1, 1)), ((1, 1), (1, 0)), ((0, 2), (0, 3)), ((0, 3), (0, 2)), ((2, 0), (3, 0)), ((3, 0), (2, 0)), ((0, 1), (1, 1)), ((1, 1), (0, 1)), ((0, 3), (1, 3)), ((1, 3), (0, 3)), ((1, 0), (2, 0)), ((2, 0), (1, 0)), ((2, 1), (2, 2)), ((2, 2), (2, 1))]",4,3,1.1035
003,3,3,"(3, 1)","(0, 2)",18,3,1,"[((1, 3), (2, 3)), ((2, 3), (1, 3)), ((0, 2), (1, 2)), ((1, 2), (0, 2)), ((0, 3), (1, 3)), ((1, 3), (0, 3)), ((0, 1), (1, 1)), ((1, 1), (0, 1)), ((1, 2), (2, 2)), ((2, 2), (1, 2)), ((2, 1), (3, 1)), ((3, 1), (2, 1)), ((2, 2), (3, 2)), ((3, 2), (2, 2)), ((2, 0), (3, 0)), ((3, 0), (2, 0)), ((0, 0), (0, 1)), ((0, 1), (0, 0)), ((3, 0), (3, 1)), ((3, 1), (3, 0)), ((3, 1), (3, 2)), ((3, 2), (3, 1)), ((0, 2), (0, 3)), ((0, 3), (0, 2)), ((3, 2), (3, 3)), ((3, 3), (3, 2)), ((2, 1), (2, 2)), ((2, 2), (2, 1)), ((0, 0), (1, 0)), ((1, 0), (0, 0)), ((1, 1), (2, 1)), ((2, 1), (1, 1)), ((1, 2), (1, 3)), ((1, 3), (1, 2)), ((0, 1), (0, 2)), ((0, 2), (0, 1))]",6,2,0.821
003,3,4,"(0, 2)","(3, 1)",18,3,1,"[((0, 1), (0, 2)), ((0, 2), (0, 1)), ((0, 0), (0, 1)), ((0, 1), (0, 0)), ((3, 0), (3, 1)), ((3, 1), (3, 0)), ((0, 3), (1, 3)), ((1, 3), (0, 3)), ((1, 2), (2, 2)), ((2, 2), (1, 2)), ((1, 1), (2, 1)), ((2, 1), (1, 1)), ((1, 3), (2, 3)), ((2, 3), (1, 3)), ((1, 0), (2, 0)), ((2, 0), (1, 0)), ((3, 1), (3, 2)), ((3, 2), (3, 1)), ((2, 1), (3, 1)), ((3, 1), (2, 1)), ((2, 1), (2, 2)), ((2, 2), (2, 1)), ((1, 0), (1, 1)), ((1, 1), (1, 0)), ((3, 2), (3, 3)), ((3, 3), (3, 2)), ((1, 1), (1, 2)), ((1, 2), (1, 1)), ((0, 1), (1, 1)), ((1, 1), (0, 1)), ((2, 3), (3, 3)), ((3, 3), (2, 3)), ((2, 0), (3, 0)), ((3, 0), (2, 0)), ((2, 2), (3, 2)), ((3, 2), (2, 2))]",7,4,1.9207
