pid,block,trial,start,end,edge_count,cyclomatic,stim_time,edges,n_paths,response,rt
MP02_1,practice,1,"(1, 0)","(2, 3)",17,2,3,"[((2, 0), (2, 1)), ((2, 1), (2, 0)), ((1, 3), (2, 3)), ((2, 3), (1, 3)), ((2, 2), (3, 2)), ((3, 2), (2, 2)), ((1, 0), (1, 1)), ((1, 1), (1, 0)), ((3, 2), (3, 3)), ((3, 3), (3, 2)), ((0, 1), (1, 1)), ((1, 1), (0, 1)), ((3, 1), (3, 2)), ((3, 2), (3, 1)), ((0, 0), (1, 0)), ((1, 0), (0, 0)), ((0, 2), (1, 2)), ((1, 2), (0, 2)), ((2, 0), (3, 0)), ((3, 0), (2, 0)), ((1, 1), (1, 2)), ((1, 2), (1, 1)), ((2, 2), (2, 3)), ((2, 3), (2, 2)), ((0, 3), (1, 3)), ((1, 3), (0, 3)), ((3, 0), (3, 1)), ((3, 1), (3, 0)), ((2, 1), (2, 2)), ((2, 2), (2, 1)), ((2, 3), (3, 3)), ((3, 3), (2, 3)), ((1, 2), (1, 3)), ((1, 3), (1, 2))]",1,5,2.0159
MP02_1,practice,2,"(2, 3)","(1, 0)",17,2,3,"[((2, 1), (3, 1)), ((3, 1), (2, 1)), ((1, 0), (1, 1)), ((1, 1), (1, 0)), ((2, 3), (3, 3)), ((3, 3), (2, 3)), ((3, 0), (3, 1)), ((3, 1), (3, 0)), ((0, 2), (0, 3)), ((0, 3), (0, 2)), ((1, 1), (1, 2)), ((1, 2), (1, 1)), ((2, 0), (2, 1)), ((2, 1), (2, 0)), ((0, 3), (1, 3)), ((1, 3), (0, 3)), ((2, 2), (2, 3)), ((2, 3), (2, 2)), ((1, 1), (2, 1)), ((2, 1), (1, 1)), ((3, 2), (3, 3)), ((3, 3), (3, 2)), ((3, 1), (3, 2)), ((3, 2), (3, 1)), ((0, 1), (1, 1)), ((1, 1), (0, 1)), ((1, 0), (2, 0)), ((2, 0), (1, 0)), ((1, 2), (1, 3)), ((1, 3), (1, 2)), ((0, 2), (1, 2)), ((1, 2), (0, 2)), ((0, 0), (1, 0)), ((1, 0), (0, 0))]",2,,
MP02_1,practice,3,"(1, 3)","(2, 0)",18,3,3,"[((1, 3), (2, 3)), ((2, 3), (1, 3)), ((0, 0), (1, 0)), ((1, 0), (0, 0)), ((2, 2), (2, 3)), ((2, 3), (2, 2)), ((2, 2), (3, 2)), ((3, 2), (2, 2)), ((0, 3), (1, 3)), ((1, 3), (0, 3)), ((2, 1), (3, 1)), ((3, 1), (2, 1)), ((0, 2), (1, 2)), ((1, 2), (0, 2)), ((1, 1), (1, 2)), ((1, 2), (1, 1)), ((3, 2), (3, 3)), ((3, 3), (3, 2)), ((1, 2), (1, 3)), ((1, 3), (1, 2)), ((2, 3), (3, 3)), ((3, 3), (2, 3)), ((0, 1), (1, 1)), ((1, 1), (0, 1)), ((2, 0), (3, 0)), ((3, 0), (2, 0)), ((0, 2), (0, 3)), ((0, 3), (0, 2)), ((3, 0), (3, 1)), ((3, 1), (3, 0)), ((0, 1), (0, 2)), ((0, 2), (0, 1)), ((0, 0), (0, 1)), ((0, 1), (0, 0)), ((1, 0), (2, 0)), ((2, 0), (1, 0))]",4,,
MP02_1,practice,4,"(3, 2)","(0, 1)",17,2,3,"[((1, 2), (2, 2)), ((2, 2), (1, 2)), ((1, 1), (1, 2)), ((1, 2), (1, 1)), ((2, 0), (3, 0)), ((3, 0), (2, 0)), ((1, 0), (2, 0)), ((2, 0), (1, 0)), ((0, 0), (1, 0)), ((1, 0), (0, 0)), ((2, 1), (2, 2)), ((2, 2), (2, 1)), ((1, 1), (2, 1)), ((2, 1), (1, 1)), ((1, 3), (2, 3)), ((2, 3), (1, 3)), ((2, 1), (3, 1)), ((3, 1), (2, 1)), ((0, 3), (1, 3)), ((1, 3), (0, 3)), ((0, 1), (0, 2)), ((0, 2), (0, 1)), ((0, 2), (1, 2)), ((1, 2), (0, 2)), ((3, 1), (3, 2)), ((3, 2), (3, 1)), ((2, 0), (2, 1)), ((2, 1), (2, 0)), ((0, 0), (0, 1)), ((0, 1), (0, 0)), ((1, 2), (1, 3)), ((1, 3), (1, 2)), ((2, 3), (3, 3)), ((3, 3), (2, 3))]",5,6,2.0032
MP02_1,practice,5,"(1, 3)","(2, 0)",18,3,3,"[((0, 2), (1, 2)), ((1, 2), (0, 2)), ((1, 0), (1, 1)), ((1, 1), (1, 0)), ((2, 1), (2, 2)), ((2, 2), (2, 1)), ((1, 0), (2, 0)), ((2, 0), (1, 0)), ((2, 0), (3, 0)), ((3, 0), (2, 0)), ((2, 3), (3, 3)), ((3, 3), (2, 3)), ((0, 0), (1, 0)), ((1, 0), (0, 0)), ((0, 1), (1, 1)), ((1, 1), (0, 1)), ((2, 1), (3, 1)), ((3, 1), (2, 1)), ((2, 0), (2, 1)), ((2, 1), (2, 0)), ((3, 2), (3, 3)), ((3, 3), (3, 2)), ((1, 3), (2, 3)), ((2, 3), (1, 3)), ((0, 2), (0, 3)), ((0, 3), (0, 2)), ((1, 2), (1, 3)), ((1, 3), (1, 2)), ((0, 1), (0, 2)), ((0, 2), (0, 1)), ((1, 1), (2, 1)), ((2, 1), (1, 1)), ((2, 2), (3, 2)), ((3, 2), (2, 2)), ((2, 2), (2, 3)), ((2, 3), (2, 2))]",6,4,4.6692
MP02_1,practice,6,"(1, 3)","(2, 0)",18,3,3,"[((1, 3), (2, 3)), ((2, 3), (1, 3)), ((2, 2), (2, 3)), ((2, 3), (2, 2)), ((0, 1), (0, 2)), ((0, 2), (0, 1)), ((3, 1), (3, 2)), ((3, 2), (3, 1)), ((0, 2), (1, 2)), ((1, 2), (0, 2)), ((1, 2), (2, 2)), ((2, 2), (1, 2)), ((0, 0), (0, 1)), ((0, 1), (0, 0)), ((0, 1), (1, 1)), ((1, 1), (0, 1)), ((3, 2), (3, 3)), ((3, 3), (3, 2)), ((0, 3), (1, 3)), ((1, 3), (0, 3)), ((2, 1), (3, 1)), ((3, 1), (2, 1)), ((1, 2), (1, 3)), ((1, 3), (1, 2)), ((2, 1), (2, 2)), ((2, 2), (2, 1)), ((1, 0), (2, 0)), ((2, 0), (1, 0)), ((0, 0), (1, 0)), ((1, 0), (0, 0)), ((2, 0), (2, 1)), ((2, 1), (2, 0)), ((2, 0), (3, 0)), ((3, 0), (2, 0)), ((3, 0), (3, 1)), ((3, 1), (3, 0))]",6,5,2.4711
MP02_1,practice,7,"(0, 2)","(3, 1)",17,2,3,"[((2, 1), (2, 2)), ((2, 2), (2, 1)), ((0, 2), (0, 3)), ((0, 3), (0, 2)), ((0, 1), (1, 1)), ((1, 1), (0, 1)), ((3, 2), (3, 3)), ((3, 3), (3, 2)), ((2, 0), (3, 0)), ((3, 0), (2, 0)), ((1, 2), (2, 2)), ((2, 2), (1, 2)), ((0, 2), (1, 2)), ((1, 2), (0, 2)), ((1, 0), (2, 0)), ((2, 0), (1, 0)), ((1, 0), (1, 1)), ((1, 1), (1, 0)), ((0, 0), (0, 1)), ((0, 1), (0, 0)), ((3, 1), (3, 2)), ((3, 2), (3, 1)), ((0, 0), (1, 0)), ((1, 0), (0, 0)), ((1, 2), (1, 3)), ((1, 3), (1, 2)), ((2, 2), (2, 3)), ((2, 3), (2, 2)), ((0, 1), (0, 2)), ((0, 2), (0, 1)), ((3, 0), (3, 1)), ((3, 1), (3, 0)), ((2, 1), (3, 1)), ((3, 1), (2, 1))]",3,4,2.3672
MP02_1,practice,8,"(0, 1)","(3, 2)",18,3,3,"[((1, 3), (2, 3)), ((2, 3), (1, 3)), ((1, 0), (2, 0)), ((2, 0), (1, 0)), ((2, 3), (3, 3)), ((3, 3), (2, 3)), ((3, 2), (3, 3)), ((3, 3), (3, 2)), ((0, 0), (0, 1)), ((0, 1), (0, 0)), ((2, 0), (2, 1)), ((2, 1), (2, 0)), ((1, 1), (1, 2)), ((1, 2), (1, 1)), ((2, 2), (2, 3)), ((2, 3), (2, 2)), ((0, 3), (1, 3)), ((1, 3), (0, 3)), ((2, 1), (2, 2)), ((2, 2), (2, 1)), ((1, 0), (1, 1)), ((1, 1), (1, 0)), ((1, 2), (2, 2)), ((2, 2), (1, 2)), ((1, 2), (1, 3)), ((1, 3), (1, 2)), ((0, 1), (0, 2)), ((0, 2), (0, 1)), ((0, 0), (1, 0)), ((1, 0), (0, 0)), ((3, 0), (3, 1)), ((3, 1), (3, 0)), ((0, 2), (0, 3)), ((0, 3), (0, 2)), ((3, 1), (3, 2)), ((3, 2), (3, 1))]",7,7,2.3673
MP02_1,practice,9,"(1, 0)","(2, 3)",18,3,3,"[((1, 2), (1, 3)), ((1, 3), (1, 2)), ((1, 2), (2, 2)), ((2, 2), (1, 2)), ((3, 1), (3, 2)), ((3, 2), (3, 1)), ((0, 2), (0, 3)), ((0, 3), (0, 2)), ((2, 2), (3, 2)), ((3, 2), (2, 2)), ((1, 3), (2, 3)), ((2, 3), (1, 3)), ((2, 3), (3, 3)), ((3, 3), (2, 3)), ((3, 2), (3, 3)), ((3, 3), (3, 2)), ((1, 0), (2, 0)), ((2, 0), (1, 0)), ((0, 1), (1, 1)), ((1, 1), (0, 1)), ((0, 0), (0, 1)), ((0, 1), (0, 0)), ((2, 0), (3, 0)), ((3, 0), (2, 0)), ((0, 2), (1, 2)), ((1, 2), (0, 2)), ((0, 0), (1, 0)), ((1, 0), (0, 0)), ((0, 1), (0, 2)), ((0, 2), (0, 1)), ((2, 1), (2, 2)), ((2, 2), (2, 1)), ((3, 0), (3, 1)), ((3, 1), (3, 0)), ((0, 3), (1, 3)), ((1, 3), (0, 3))]",7,5,2.0017
MP02_1,practice,10,"(0, 2)","(3, 1)",19,4,3,"[((0, 2), (0, 3)), ((0, 3), (0, 2)), ((2, 3), (3, 3)), ((3, 3), (2, 3)), ((0, 1), (1, 1)), ((1, 1), (0, 1)), ((3, 1), (3, 2)), ((3, 2), (3, 1)), ((1, 3), (2, 3)), ((2, 3), (1, 3)), ((2, 2), (2, 3)), ((2, 3), (2, 2)), ((0, 0), (0, 1)), ((0, 1), (0, 0)), ((3, 0), (3, 1)), ((3, 1), (3, 0)), ((1, 2), (1, 3)), ((1, 3), (1, 2)), ((3, 2), (3, 3)), ((3, 3), (3, 2)), ((2, 0), (3, 0)), ((3, 0), (2, 0)), ((0, 2), (1, 2)), ((1, 2), (0, 2)), ((2, 2), (3, 2)), ((3, 2), (2, 2)), ((1, 1), (1, 2)), ((1, 2), (1, 1)), ((1, 0), (1, 1)), ((1, 1), (1, 0)), ((2, 1), (3, 1)), ((3, 1), (2, 1)), ((0, 0), (1, 0)), ((1, 0), (0, 0)), ((1, 0), (2, 0)), ((2, 0), (1, 0)), ((1, 1), (2, 1)), ((2, 1), (1, 1))]",7,5,2.5186
MP02_1,practice,11,"(2, 0)","(1, 3)",16,1,3,"[((0, 0), (0, 1)), ((0, 1), (0, 0)), ((1, 3), (2, 3)), ((2, 3), (1, 3)), ((2, 3), (3, 3)), ((3, 3), (2, 3)), ((3, 0), (3, 1)), ((3, 1), (3, 0)), ((2, 1), (2, 2)), ((2, 2), (2, 1)), ((1, 0), (1, 1)), ((1, 1), (1, 0)), ((1, 2), (2, 2)), ((2, 2), (1, 2)), ((0, 1), (0, 2)), ((0, 2), (0, 1)), ((2, 1), (3, 1)), ((3, 1), (2, 1)), ((2, 2), (2, 3)), ((2, 3), (2, 2)), ((0, 2), (1, 2)), ((1, 2), (0, 2)), ((0, 3), (1, 3)), ((1, 3), (0, 3)), ((1, 1), (1, 2)), ((1, 2), (1, 1)), ((0, 0), (1, 0)), ((1, 0), (0, 0)), ((2, 0), (2, 1)), ((2, 1), (2, 0)), ((3, 2), (3, 3)), ((3, 3), (3, 2))]",1,6,1.9149
MP02_1,practice,12,"(0, 2)","(3, 1)",18,3,3,"[((2, 2), (3, 2)), ((3, 2), (2, 2)), ((3, 0), (3, 1)), ((3, 1), (3, 0)), ((0, 2), (0, 3)), ((0, 3), (0, 2)), ((1, 2), (1, 3)), ((1, 3), (1, 2)), ((0, 1), (0, 2)), ((0, 2), (0, 1)), ((2, 0), (2, 1)), ((2, 1), (2, 0)), ((3, 2), (3, 3)), ((3, 3), (3, 2)), ((0, 1), (1, 1)), ((1, 1), (0, 1)), ((1, 1), (2, 1)), ((2, 1), (1, 1)), ((3, 1), (3, 2)), ((3, 2), (3, 1)), ((1, 3), (2, 3)), ((2, 3), (1, 3)), ((2, 1), (3, 1)), ((3, 1), (2, 1)), ((2, 2), (2, 3)), ((2, 3), (2, 2)), ((1, 0), (2, 0)), ((2, 0), (1, 0)), ((1, 1), (1, 2)), ((1, 2), (1, 1)), ((2, 0), (3, 0)), ((3, 0), (2, 0)), ((2, 1), (2, 2)), ((2, 2), (2, 1)), ((0, 0), (0, 1)), ((0, 1), (0, 0))]",6,4,2.9548
MP02_1,practice,13,"(3, 2)","(0, 1)",15,0,3,"[((0, 0), (0, 1)), ((0, 1), (0, 0)), ((1, 1), (2, 1)), ((2, 1), (1, 1)), ((2, 1), (3, 1)), ((3, 1), (2, 1)), ((1, 0), (2, 0)), ((2, 0), (1, 0)), ((0, 2), (1, 2)), ((1, 2), (0, 2)), ((1, 2), (1, 3)), ((1, 3), (1, 2)), ((2, 3), (3, 3)), ((3, 3), (2, 3)), ((2, 1), (2, 2)), ((2, 2), (2, 1)), ((0, 0), (1, 0)), ((1, 0), (0, 0)), ((3, 2), (3, 3)), ((3, 3), (3, 2)), ((2, 0), (3, 0)), ((3, 0), (2, 0)), ((3, 0), (3, 1)), ((3, 1), (3, 0)), ((0, 3), (1, 3)), ((1, 3), (0, 3)), ((2, 2), (2, 3)), ((2, 3), (2, 2)), ((0, 1), (0, 2)), ((0, 2), (0, 1))]",1,1,2.4535
MP02_1,practice,14,"(2, 3)","(1, 0)",17,2,3,"[((2, 2), (2, 3)), ((2, 3), (2, 2)), ((1, 1), (1, 2)), ((1, 2), (1, 1)), ((1, 0), (2, 0)), ((2, 0), (1, 0)), ((2, 0), (2, 1)), ((2, 1), (2, 0)), ((2, 0), (3, 0)), ((3, 0), (2, 0)), ((0, 2), (1, 2)), ((1, 2), (0, 2)), ((3, 2), (3, 3)), ((3, 3), (3, 2)), ((2, 3), (3, 3)), ((3, 3), (2, 3)), ((1, 1), (2, 1)), ((2, 1), (1, 1)), ((2, 2), (3, 2)), ((3, 2), (2, 2)), ((0, 2), (0, 3)), ((0, 3), (0, 2)), ((0, 1), (1, 1)), ((1, 1), (0, 1)), ((0, 0), (1, 0)), ((1, 0), (0, 0)), ((1, 2), (2, 2)), ((2, 2), (1, 2)), ((3, 1), (3, 2)), ((3, 2), (3, 1)), ((2, 1), (3, 1)), ((3, 1), (2, 1)), ((1, 2), (1, 3)), ((1, 3), (1, 2))]",4,2,2.3689
MP02_1,practice,15,"(0, 1)","(3, 2)",16,1,3,"[((2, 1), (2, 2)), ((2, 2), (2, 1)), ((0, 2), (1, 2)), ((1, 2), (0, 2)), ((1, 1), (2, 1)), ((2, 1), (1, 1)), ((3, 0), (3, 1)), ((3, 1), (3, 0)), ((2, 3), (3, 3)), ((3, 3), (2, 3)), ((1, 2), (2, 2)), ((2, 2), (1, 2)), ((2, 2), (2, 3)), ((2, 3), (2, 2)), ((2, 0), (3, 0)), ((3, 0), (2, 0)), ((1, 0), (2, 0)), ((2, 0), (1, 0)), ((0, 3), (1, 3)), ((1, 3), (0, 3)), ((0, 1), (1, 1)), ((1, 1), (0, 1)), ((3, 1), (3, 2)), ((3, 2), (3, 1)), ((3, 2), (3, 3)), ((3, 3), (3, 2)), ((2, 0), (2, 1)), ((2, 1), (2, 0)), ((0, 0), (0, 1)), ((0, 1), (0, 0)), ((1, 3), (2, 3)), ((2, 3), (1, 3))]",2,3,3.2698
MP02_1,practice,16,"(2, 0)","(1, 3)",18,3,3,"[((3, 2), (3, 3)), ((3, 3), (3, 2)), ((3, 1), (3, 2)), ((3, 2), (3, 1)), ((0, 0), (0, 1)), ((0, 1), (0, 0)), ((0, 1), (0, 2)), ((0, 2), (0, 1)), ((1, 1), (2, 1)), ((2, 1), (1, 1)), ((0, 1), (1, 1)), ((1, 1), (0, 1)), ((2, 2), (3, 2)), ((3, 2), (2, 2)), ((0, 3), (1, 3)), ((1, 3), (0, 3)), ((1, 1), (1, 2)), ((1, 2), (1, 1)), ((1, 3), (2, 3)), ((2, 3), (1, 3)), ((0, 2), (1, 2)), ((1, 2), (0, 2)), ((1, 2), (1, 3)), ((1, 3), (1, 2)), ((2, 0), (3, 0)), ((3, 0), (2, 0)), ((2, 3), (3, 3)), ((3, 3), (2, 3)), ((3, 0), (3, 1)), ((3, 1), (3, 0)), ((1, 2), (2, 2)), ((2, 2), (1, 2)), ((0, 0), (1, 0)), ((1, 0), (0, 0)), ((1, 0), (1, 1)), ((1, 1), (1, 0))]",6,2,1.8368
MP02_1,practice,17,"(2, 0)","(1, 3)",17,2,3,"[((0, 0), (0, 1)), ((0, 1), (0, 0)), ((1, 0), (1, 1)), ((1, 1), (1, 0)), ((1, 2), (2, 2)), ((2, 2), (1, 2)), ((3, 1), (3, 2)), ((3, 2), (3, 1)), ((2, 2), (2, 3)), ((2, 3), (2, 2)), ((1, 1), (1, 2)), ((1, 2), (1, 1)), ((1, 0), (2, 0)), ((2, 0), (1, 0)), ((0, 2), (1, 2)), ((1, 2), (0, 2)), ((0, 2), (0, 3)), ((0, 3), (0, 2)), ((3, 0), (3, 1)), ((3, 1), (3, 0)), ((0, 3), (1, 3)), ((1, 3), (0, 3)), ((2, 1), (2, 2)), ((2, 2), (2, 1)), ((2, 1), (3, 1)), ((3, 1), (2, 1)), ((1, 1), (2, 1)), ((2, 1), (1, 1)), ((0, 1), (1, 1)), ((1, 1), (0, 1)), ((0, 1), (0, 2)), ((0, 2), (0, 1)), ((3, 2), (3, 3)), ((3, 3), (3, 2))]",5,4,2.8035
MP02_1,practice,18,"(1, 0)","(2, 3)",17,2,3,"[((0, 0), (0, 1)), ((0, 1), (0, 0)), ((0, 2), (0, 3)), ((0, 3), (0, 2)), ((2, 1), (2, 2)), ((2, 2), (2, 1)), ((3, 2), (3, 3)), ((3, 3), (3, 2)), ((2, 1), (3, 1)), ((3, 1), (2, 1)), ((2, 3), (3, 3)), ((3, 3), (2, 3)), ((0, 1), (0, 2)), ((0, 2), (0, 1)), ((0, 2), (1, 2)), ((1, 2), (0, 2)), ((2, 0), (3, 0)), ((3, 0), (2, 0)), ((1, 0), (2, 0)), ((2, 0), (1, 0)), ((1, 3), (2, 3)), ((2, 3), (1, 3)), ((2, 0), (2, 1)), ((2, 1), (2, 0)), ((2, 2), (2, 3)), ((2, 3), (2, 2)), ((1, 1), (2, 1)), ((2, 1), (1, 1)), ((1, 2), (2, 2)), ((2, 2), (1, 2)), ((1, 2), (1, 3)), ((1, 3), (1, 2)), ((1, 0), (1, 1)), ((1, 1), (1, 0))]",4,4,2.9723
MP02_1,practice,19,"(1, 3)","(2, 0)",18,3,3,"[((3, 2), (3, 3)), ((3, 3), (3, 2)), ((2, 3), (3, 3)), ((3, 3), (2, 3)), ((2, 0), (3, 0)), ((3, 0), (2, 0)), ((1, 1), (1, 2)), ((1, 2), (1, 1)), ((2, 1), (2, 2)), ((2, 2), (2, 1)), ((2, 2), (3, 2)), ((3, 2), (2, 2)), ((2, 0), (2, 1)), ((2, 1), (2, 0)), ((0, 2), (1, 2)), ((1, 2), (0, 2)), ((0, 0), (0, 1)), ((0, 1), (0, 0)), ((1, 2), (1, 3)), ((1, 3), (1, 2)), ((3, 0), (3, 1)), ((3, 1), (3, 0)), ((1, 0), (2, 0)), ((2, 0), (1, 0)), ((0, 1), (0, 2)), ((0, 2), (0, 1)), ((1, 1), (2, 1)), ((2, 1), (1, 1)), ((2, 2), (2, 3)), ((2, 3), (2, 2)), ((0, 2), (0, 3)), ((0, 3), (0, 2)), ((2, 1), (3, 1)), ((3, 1), (2, 1)), ((1, 0), (1, 1)), ((1, 1), (1, 0))]",3,3,2.4356
MP02_1,practice,20,"(1, 3)","(2, 0)",18,3,3,"[((3, 2), (3, 3)), ((3, 3), (3, 2)), ((0, 0), (1, 0)), ((1, 0), (0, 0)), ((3, 0), (3, 1)), ((3, 1), (3, 0)), ((0, 3), (1, 3)), ((1, 3), (0, 3)), ((2, 0), (3, 0)), ((3, 0), (2, 0)), ((2, 2), (3, 2)), ((3, 2), (2, 2)), ((0, 0), (0, 1)), ((0, 1), (0, 0)), ((1, 1), (1, 2)), ((1, 2), (1, 1)), ((3, 1), (3, 2)), ((3, 2), (3, 1)), ((0, 2), (0, 3)), ((0, 3), (0, 2)), ((1, 0), (1, 1)), ((1, 1), (1, 0)), ((1, 3), (2, 3)), ((2, 3), (1, 3)), ((1, 0), (2, 0)), ((2, 0), (1, 0)), ((2, 2), (2, 3)), ((2, 3), (2, 2)), ((2, 1), (2, 2)), ((2, 2), (2, 1)), ((0, 1), (1, 1)), ((1, 1), (0, 1)), ((1, 2), (2, 2)), ((2, 2), (1, 2)), ((0, 1), (0, 2)), ((0, 2), (0, 1))]",7,2,2.287
MP02_1,1,1,"(2, 3)","(1, 0)",17,2,3,"[((0, 1), (0, 2)), ((0, 2), (0, 1)), ((3, 2), (3, 3)), ((3, 3), (3, 2)), ((2, 2), (3, 2)), ((3, 2), (2, 2)), ((0, 2), (0, 3)), ((0, 3), (0, 2)), ((0, 0), (1, 0)), ((1, 0), (0, 0)), ((2, 1), (2, 2)), ((2, 2), (2, 1)), ((0, 2), (1, 2)), ((1, 2), (0, 2)), ((1, 3), (2, 3)), ((2, 3), (1, 3)), ((2, 2), (2, 3)), ((2, 3), (2, 2)), ((3, 1), (3, 2)), ((3, 2), (3, 1)), ((1, 1), (2, 1)), ((2, 1), (1, 1)), ((1, 0), (2, 0)), ((2, 0), (1, 0)), ((2, 0), (2, 1)), ((2, 1), (2, 0)), ((1, 0), (1, 1)), ((1, 1), (1, 0)), ((2, 1), (3, 1)), ((3, 1), (2, 1)), ((1, 2), (2, 2)), ((2, 2), (1, 2)), ((3, 0), (3, 1)), ((3, 1), (3, 0))]",4,4,2.5456
MP02_1,1,2,"(3, 1)","(0, 2)",18,3,3,"[((2, 0), (2, 1)), ((2, 1), (2, 0)), ((2, 0), (3, 0)), ((3, 0), (2, 0)), ((1, 0), (1, 1)), ((1, 1), (1, 0)), ((1, 0), (2, 0)), ((2, 0), (1, 0)), ((0, 0), (1, 0)), ((1, 0), (0, 0)), ((1, 2), (2, 2)), ((2, 2), (1, 2)), ((0, 1), (0, 2)), ((0, 2), (0, 1)), ((0, 2), (1, 2)), ((1, 2), (0, 2)), ((2, 2), (3, 2)), ((3, 2), (2, 2)), ((2, 3), (3, 3)), ((3, 3), (2, 3)), ((3, 0), (3, 1)), ((3, 1), (3, 0)), ((1, 1), (2, 1)), ((2, 1), (1, 1)), ((0, 3), (1, 3)), ((1, 3), (0, 3)), ((3, 1), (3, 2)), ((3, 2), (3, 1)), ((0, 0), (0, 1)), ((0, 1), (0, 0)), ((2, 2), (2, 3)), ((2, 3), (2, 2)), ((1, 3), (2, 3)), ((2, 3), (1, 3)), ((1, 1), (1, 2)), ((1, 2), (1, 1))]",7,3,2.556
MP02_1,1,3,"(0, 2)","(3, 1)",17,2,3,"[((0, 0), (0, 1)), ((0, 1), (0, 0)), ((2, 0), (3, 0)), ((3, 0), (2, 0)), ((0, 2), (0, 3)), ((0, 3), (0, 2)), ((1, 1), (1, 2)), ((1, 2), (1, 1)), ((1, 1), (2, 1)), ((2, 1), (1, 1)), ((2, 3), (3, 3)), ((3, 3), (2, 3)), ((0, 1), (1, 1)), ((1, 1), (0, 1)), ((3, 2), (3, 3)), ((3, 3), (3, 2)), ((2, 2), (2, 3)), ((2, 3), (2, 2)), ((0, 0), (1, 0)), ((1, 0), (0, 0)), ((1, 0), (1, 1)), ((1, 1), (1, 0)), ((0, 2), (1, 2)), ((1, 2), (0, 2)), ((2, 1), (3, 1)), ((3, 1), (2, 1)), ((1, 2), (2, 2)), ((2, 2), (1, 2)), ((2, 0), (2, 1)), ((2, 1), (2, 0)), ((1, 3), (2, 3)), ((2, 3), (1, 3)), ((0, 1), (0, 2)), ((0, 2), (0, 1))]",5,3,3.5121
MP02_1,1,4,"(1, 3)","(2, 0)",16,1,3,"[((1, 2), (1, 3)), ((1, 3), (1, 2)), ((3, 0), (3, 1)), ((3, 1), (3, 0)), ((2, 1), (3, 1)), ((3, 1), (2, 1)), ((3, 2), (3, 3)), ((3, 3), (3, 2)), ((2, 0), (2, 1)), ((2, 1), (2, 0)), ((1, 1), (2, 1)), ((2, 1), (1, 1)), ((2, 2), (2, 3)), ((2, 3), (2, 2)), ((0, 0), (0, 1)), ((0, 1), (0, 0)), ((0, 0), (1, 0)), ((1, 0), (0, 0)), ((0, 2), (0, 3)), ((0, 3), (0, 2)), ((1, 0), (2, 0)), ((2, 0), (1, 0)), ((3, 1), (3, 2)), ((3, 2), (3, 1)), ((2, 3), (3, 3)), ((3, 3), (2, 3)), ((0, 2), (1, 2)), ((1, 2), (0, 2)), ((1, 1), (1, 2)), ((1, 2), (1, 1)), ((1, 3), (2, 3)), ((2, 3), (1, 3))]",2,4,2.8361
MP02_1,1,5,"(0, 1)","(3, 2)",18,3,3,"[((3, 0), (3, 1)), ((3, 1), (3, 0)), ((1, 3), (2, 3)), ((2, 3), (1, 3)), ((2, 0), (3, 0)), ((3, 0), (2, 0)), ((0, 2), (1, 2)), ((1, 2), (0, 2)), ((3, 1), (3, 2)), ((3, 2), (3, 1)), ((2, 2), (2, 3)), ((2, 3), (2, 2)), ((0, 3), (1, 3)), ((1, 3), (0, 3)), ((0, 0), (1, 0)), ((1, 0), (0, 0)), ((2, 0), (2, 1)), ((2, 1), (2, 0)), ((1, 0), (2, 0)), ((2, 0), (1, 0)), ((2, 1), (3, 1)), ((3, 1), (2, 1)), ((1, 1), (2, 1)), ((2, 1), (1, 1)), ((1, 1), (1, 2)), ((1, 2), (1, 1)), ((0, 0), (0, 1)), ((0, 1), (0, 0)), ((0, 1), (0, 2)), ((0, 2), (0, 1)), ((1, 2), (1, 3)), ((1, 3), (1, 2)), ((0, 2), (0, 3)), ((0, 3), (0, 2)), ((2, 3), (3, 3)), ((3, 3), (2, 3))]",6,6,1.6368
MP02_1,1,6,"(2, 0)","(1, 3)",15,0,3,"[((0, 2), (0, 3)), ((0, 3), (0, 2)), ((1, 0), (2, 0)), ((2, 0), (1, 0)), ((0, 0), (0, 1)), ((0, 1), (0, 0)), ((1, 3), (2, 3)), ((2, 3), (1, 3)), ((2, 2), (2, 3)), ((2, 3), (2, 2)), ((3, 1), (3, 2)), ((3, 2), (3, 1)), ((3, 2), (3, 3)), ((3, 3), (3, 2)), ((3, 0), (3, 1)), ((3, 1), (3, 0)), ((0, 1), (1, 1)), ((1, 1), (0, 1)), ((1, 2), (2, 2)), ((2, 2), (1, 2)), ((2, 1), (2, 2)), ((2, 2), (2, 1)), ((0, 3), (1, 3)), ((1, 3), (0, 3)), ((1, 0), (1, 1)), ((1, 1), (1, 0)), ((1, 1), (2, 1)), ((2, 1), (1, 1)), ((2, 3), (3, 3)), ((3, 3), (2, 3))]",1,1,2.4308
MP02_1,1,7,"(3, 1)","(0, 2)",15,0,3,"[((2, 0), (2, 1)), ((2, 1), (2, 0)), ((3, 2), (3, 3)), ((3, 3), (3, 2)), ((0, 2), (0, 3)), ((0, 3), (0, 2)), ((2, 1), (3, 1)), ((3, 1), (2, 1)), ((1, 0), (1, 1)), ((1, 1), (1, 0)), ((1, 1), (2, 1)), ((2, 1), (1, 1)), ((3, 1), (3, 2)), ((3, 2), (3, 1)), ((0, 1), (1, 1)), ((1, 1), (0, 1)), ((0, 0), (1, 0)), ((1, 0), (0, 0)), ((1, 2), (1, 3)), ((1, 3), (1, 2)), ((2, 2), (3, 2)), ((3, 2), (2, 2)), ((0, 3), (1, 3)), ((1, 3), (0, 3)), ((2, 3), (3, 3)), ((3, 3), (2, 3)), ((2, 0), (3, 0)), ((3, 0), (2, 0)), ((1, 2), (2, 2)), ((2, 2), (1, 2))]",1,2,2.438
MP02_1,1,8,"(2, 3)","(1, 0)",18,3,3,"[((1, 2), (2, 2)), ((2, 2), (1, 2)), ((2, 2), (3, 2)), ((3, 2), (2, 2)), ((0, 1), (0, 2)), ((0, 2), (0, 1)), ((3, 1), (3, 2)), ((3, 2), (3, 1)), ((1, 1), (2, 1)), ((2, 1), (1, 1)), ((0, 3), (1, 3)), ((1, 3), (0, 3)), ((0, 2), (0, 3)), ((0, 3), (0, 2)), ((3, 2), (3, 3)), ((3, 3), (3, 2)), ((0, 2), (1, 2)), ((1, 2), (0, 2)), ((1, 2), (1, 3)), ((1, 3), (1, 2)), ((1, 3), (2, 3)), ((2, 3), (1, 3)), ((2, 1), (3, 1)), ((3, 1), (2, 1)), ((3, 0), (3, 1)), ((3, 1), (3, 0)), ((2, 2), (2, 3)), ((2, 3), (2, 2)), ((2, 0), (2, 1)), ((2, 1), (2, 0)), ((0, 1), (1, 1)), ((1, 1), (0, 1)), ((0, 0), (1, 0)), ((1, 0), (0, 0)), ((1, 0), (2, 0)), ((2, 0), (1, 0))]",7,5,2.4193
MP02_1,1,9,"(3, 1)","(0, 2)",18,3,3,"[((1, 0), (2, 0)), ((2, 0), (1, 0)), ((2, 2), (2, 3)), ((2, 3), (2, 2)), ((3, 1), (3, 2)), ((3, 2), (3, 1)), ((2, 3), (3, 3)), ((3, 3), (2, 3)), ((3, 2), (3, 3)), ((3, 3), (3, 2)), ((0, 1), (1, 1)), ((1, 1), (0, 1)), ((1, 2), (1, 3)), ((1, 3), (1, 2)), ((3, 0), (3, 1)), ((3, 1), (3, 0)), ((0, 3), (1, 3)), ((1, 3), (0, 3)), ((0, 1), (0, 2)), ((0, 2), (0, 1)), ((1, 1), (2, 1)), ((2, 1), (1, 1)), ((2, 1), (2, 2)), ((2, 2), (2, 1)), ((1, 1), (1, 2)), ((1, 2), (1, 1)), ((1, 3), (2, 3)), ((2, 3), (1, 3)), ((2, 0), (2, 1)), ((2, 1), (2, 0)), ((0, 0), (1, 0)), ((1, 0), (0, 0)), ((1, 2), (2, 2)), ((2, 2), (1, 2)), ((2, 1), (3, 1)), ((3, 1), (2, 1))]",7,1,1.8699
MP02_1,1,10,"(3, 1)","(0, 2)",15,0,3,"[((1, 1), (2, 1)), ((2, 1), (1, 1)), ((1, 0), (2, 0)), ((2, 0), (1, 0)), ((0, 3), (1, 3)), ((1, 3), (0, 3)), ((0, 1), (0, 2)), ((0, 2), (0, 1)), ((0, 2), (0, 3)), ((0, 3), (0, 2)), ((0, 0), (1, 0)), ((1, 0), (0, 0)), ((2, 2), (3, 2)), ((3, 2), (2, 2)), ((2, 0), (3, 0)), ((3, 0), (2, 0)), ((2, 3), (3, 3)), ((3, 3), (2, 3)), ((3, 0), (3, 1)), ((3, 1), (3, 0)), ((1, 0), (1, 1)), ((1, 1), (1, 0)), ((1, 2), (2, 2)), ((2, 2), (1, 2)), ((1, 3), (2, 3)), ((2, 3), (1, 3)), ((0, 1), (1, 1)), ((1, 1), (0, 1)), ((2, 2), (2, 3)), ((2, 3), (2, 2))]",1,1,1.8384
MP02_1,1,11,"(0, 2)","(3, 1)",17,2,3,"[((1, 2), (2, 2)), ((2, 2), (1, 2)), ((0, 0), (1, 0)), ((1, 0), (0, 0)), ((2, 2), (3, 2)), ((3, 2), (2, 2)), ((2, 0), (3, 0)), ((3, 0), (2, 0)), ((2, 0), (2, 1)), ((2, 1), (2, 0)), ((3, 2), (3, 3)), ((3, 3), (3, 2)), ((2, 3), (3, 3)), ((3, 3), (2, 3)), ((0, 3), (1, 3)), ((1, 3), (0, 3)), ((3, 1), (3, 2)), ((3, 2), (3, 1)), ((1, 1), (1, 2)), ((1, 2), (1, 1)), ((1, 0), (1, 1)), ((1, 1), (1, 0)), ((0, 1), (0, 2)), ((0, 2), (0, 1)), ((0, 0), (0, 1)), ((0, 1), (0, 0)), ((2, 2), (2, 3)), ((2, 3), (2, 2)), ((3, 0), (3, 1)), ((3, 1), (3, 0)), ((1, 0), (2, 0)), ((2, 0), (1, 0)), ((0, 2), (0, 3)), ((0, 3), (0, 2))]",3,3,2.4659
MP02_1,1,12,"(0, 2)","(3, 1)",18,3,3,"[((2, 2), (2, 3)), ((2, 3), (2, 2)), ((1, 0), (1, 1)), ((1, 1), (1, 0)), ((1, 3), (2, 3)), ((2, 3), (1, 3)), ((3, 1), (3, 2)), ((3, 2), (3, 1)), ((2, 3), (3, 3)), ((3, 3), (2, 3)), ((3, 2), (3, 3)), ((3, 3), (3, 2)), ((0, 1), (1, 1)), ((1, 1), (0, 1)), ((0, 0), (1, 0)), ((1, 0), (0, 0)), ((0, 0), (0, 1)), ((0, 1), (0, 0)), ((2, 2), (3, 2)), ((3, 2), (2, 2)), ((1, 2), (2, 2)), ((2, 2), (1, 2)), ((0, 3), (1, 3)), ((1, 3), (0, 3)), ((1, 1), (2, 1)), ((2, 1), (1, 1)), ((2, 0), (3, 0)), ((3, 0), (2, 0)), ((0, 2), (1, 2)), ((1, 2), (0, 2)), ((2, 1), (2, 2)), ((2, 2), (2, 1)), ((3, 0), (3, 1)), ((3, 1), (3, 0)), ((2, 1), (3, 1)), ((3, 1), (2, 1))]",5,3,3.6709
MP02_1,1,13,"(2, 3)","(1, 0)",16,1,3,"[((1, 1), (1, 2)), ((1, 2), (1, 1)), ((3, 2), (3, 3)), ((3, 3), (3, 2)), ((0, 1), (1, 1)), ((1, 1), (0, 1)), ((3, 1), (3, 2)), ((3, 2), (3, 1)), ((1, 2), (2, 2)), ((2, 2), (1, 2)), ((1, 1), (2, 1)), ((2, 1), (1, 1)), ((1, 2), (1, 3)), ((1, 3), (1, 2)), ((2, 0), (2, 1)), ((2, 1), (2, 0)), ((0, 2), (0, 3)), ((0, 3), (0, 2)), ((0, 3), (1, 3)), ((1, 3), (0, 3)), ((0, 0), (1, 0)), ((1, 0), (0, 0)), ((2, 1), (2, 2)), ((2, 2), (2, 1)), ((1, 0), (2, 0)), ((2, 0), (1, 0)), ((1, 3), (2, 3)), ((2, 3), (1, 3)), ((2, 0), (3, 0)), ((3, 0), (2, 0)), ((3, 0), (3, 1)), ((3, 1), (3, 0))]",2,6,2.0233
MP02_1,1,14,"(1, 0)","(2, 3)",18,3,3,"[((2, 1), (3, 1)), ((3, 1), (2, 1)), ((0, 1), (0, 2)), ((0, 2), (0, 1)), ((2, 2), (2, 3)), ((2, 3), (2, 2)), ((0, 2), (0, 3)), ((0, 3), (0, 2)), ((1, 1), (1, 2)), ((1, 2), (1, 1)), ((0, 1), (1, 1)), ((1, 1), (0, 1)), ((1, 3), (2, 3)), ((2, 3), (1, 3)), ((3, 1), (3, 2)), ((3, 2), (3, 1)), ((0, 0), (1, 0)), ((1, 0), (0, 0)), ((3, 0), (3, 1)), ((3, 1), (3, 0)), ((2, 0), (3, 0)), ((3, 0), (2, 0)), ((2, 1), (2, 2)), ((2, 2), (2, 1)), ((1, 1), (2, 1)), ((2, 1), (1, 1)), ((1, 0), (2, 0)), ((2, 0), (1, 0)), ((2, 2), (3, 2)), ((3, 2), (2, 2)), ((1, 2), (1, 3)), ((1, 3), (1, 2)), ((2, 3), (3, 3)), ((3, 3), (2, 3)), ((0, 3), (1, 3)), ((1, 3), (0, 3))]",6,5,2.1485
MP02_1,1,15,"(3, 1)","(0, 2)",17,2,3,"[((0, 1), (1, 1)), ((1, 1), (0, 1)), ((1, 1), (2, 1)), ((2, 1), (1, 1)), ((1, 0), (1, 1)), ((1, 1), (1, 0)), ((3, 1), (3, 2)), ((3, 2), (3, 1)), ((0, 0), (1, 0)), ((1, 0), (0, 0)), ((0, 1), (0, 2)), ((0, 2), (0, 1)), ((1, 2), (1, 3)), ((1, 3), (1, 2)), ((1, 0), (2, 0)), ((2, 0), (1, 0)), ((2, 3), (3, 3)), ((3, 3), (2, 3)), ((2, 1), (2, 2)), ((2, 2), (2, 1)), ((2, 2), (2, 3)), ((2, 3), (2, 2)), ((0, 3), (1, 3)), ((1, 3), (0, 3)), ((0, 2), (1, 2)), ((1, 2), (0, 2)), ((2, 0), (3, 0)), ((3, 0), (2, 0)), ((3, 2), (3, 3)), ((3, 3), (3, 2)), ((2, 1), (3, 1)), ((3, 1), (2, 1)), ((2, 2), (3, 2)), ((3, 2), (2, 2))]",3,4,2.4471
MP02_1,1,16,"(0, 2)","(3, 1)",17,2,3,"[((1, 2), (2, 2)), ((2, 2), (1, 2)), ((3, 2), (3, 3)), ((3, 3), (3, 2)), ((2, 2), (2, 3)), ((2, 3), (2, 2)), ((0, 2), (1, 2)), ((1, 2), (0, 2)), ((1, 0), (1, 1)), ((1, 1), (1, 0)), ((0, 1), (1, 1)), ((1, 1), (0, 1)), ((0, 3), (1, 3)), ((1, 3), (0, 3)), ((2, 1), (3, 1)), ((3, 1), (2, 1)), ((1, 1), (2, 1)), ((2, 1), (1, 1)), ((2, 3), (3, 3)), ((3, 3), (2, 3)), ((0, 2), (0, 3)), ((0, 3), (0, 2)), ((1, 0), (2, 0)), ((2, 0), (1, 0)), ((3, 1), (3, 2)), ((3, 2), (3, 1)), ((2, 1), (2, 2)), ((2, 2), (2, 1)), ((2, 2), (3, 2)), ((3, 2), (2, 2)), ((3, 0), (3, 1)), ((3, 1), (3, 0)), ((0, 0), (0, 1)), ((0, 1), (0, 0))]",5,3,1.8345
MP02_1,1,17,"(0, 1)","(3, 2)",18,3,3,"[((1, 0), (1, 1)), ((1, 1), (1, 0)), ((1, 2), (2, 2)), ((2, 2), (1, 2)), ((2, 0), (2, 1)), ((2, 1), (2, 0)), ((3, 2), (3, 3)), ((3, 3), (3, 2)), ((2, 0), (3, 0)), ((3, 0), (2, 0)), ((0, 3), (1, 3)), ((1, 3), (0, 3)), ((0, 2), (1, 2)), ((1, 2), (0, 2)), ((2, 2), (3, 2)), ((3, 2), (2, 2)), ((1, 2), (1, 3)), ((1, 3), (1, 2)), ((2, 2), (2, 3)), ((2, 3), (2, 2)), ((0, 1), (1, 1)), ((1, 1), (0, 1)), ((1, 0), (2, 0)), ((2, 0), (1, 0)), ((2, 3), (3, 3)), ((3, 3), (2, 3)), ((0, 2), (0, 3)), ((0, 3), (0, 2)), ((2, 1), (2, 2)), ((2, 2), (2, 1)), ((3, 0), (3, 1)), ((3, 1), (3, 0)), ((3, 1), (3, 2)), ((3, 2), (3, 1)), ((0, 0), (1, 0)), ((1, 0), (0, 0))]",3,2,1.9889
MP02_1,1,18,"(0, 2)","(3, 1)",18,3,3,"[((3, 0), (3, 1)), ((3, 1), (3, 0)), ((0, 0), (1, 0)), ((1, 0), (0, 0)), ((0, 2), (0, 3)), ((0, 3), (0, 2)), ((2, 1), (2, 2)), ((2, 2), (2, 1)), ((0, 2), (1, 2)), ((1, 2), (0, 2)), ((0, 0), (0, 1)), ((0, 1), (0, 0)), ((3, 1), (3, 2)), ((3, 2), (3, 1)), ((1, 3), (2, 3)), ((2, 3), (1, 3)), ((1, 1), (2, 1)), ((2, 1), (1, 1)), ((2, 2), (2, 3)), ((2, 3), (2, 2)), ((1, 0), (2, 0)), ((2, 0), (1, 0)), ((1, 0), (1, 1)), ((1, 1), (1, 0)), ((2, 1), (3, 1)), ((3, 1), (2, 1)), ((2, 0), (2, 1)), ((2, 1), (2, 0)), ((2, 0), (3, 0)), ((3, 0), (2, 0)), ((1, 2), (2, 2)), ((2, 2), (1, 2)), ((2, 2), (3, 2)), ((3, 2), (2, 2)), ((2, 3), (3, 3)), ((3, 3), (2, 3))]",6,3,1.9281
MP02_1,1,19,"(2, 3)","(1, 0)",18,3,3,"[((3, 2), (3, 3)), ((3, 3), (3, 2)), ((2, 1), (2, 2)), ((2, 2), (2, 1)), ((0, 3), (1, 3)), ((1, 3), (0, 3)), ((1, 0), (2, 0)), ((2, 0), (1, 0)), ((3, 1), (3, 2)), ((3, 2), (3, 1)), ((2, 1), (3, 1)), ((3, 1), (2, 1)), ((1, 1), (2, 1)), ((2, 1), (1, 1)), ((0, 1), (1, 1)), ((1, 1), (0, 1)), ((1, 2), (2, 2)), ((2, 2), (1, 2)), ((3, 0), (3, 1)), ((3, 1), (3, 0)), ((2, 3), (3, 3)), ((3, 3), (2, 3)), ((2, 2), (3, 2)), ((3, 2), (2, 2)), ((0, 0), (1, 0)), ((1, 0), (0, 0)), ((1, 3), (2, 3)), ((2, 3), (1, 3)), ((0, 0), (0, 1)), ((0, 1), (0, 0)), ((2, 0), (3, 0)), ((3, 0), (2, 0)), ((1, 1), (1, 2)), ((1, 2), (1, 1)), ((0, 2), (1, 2)), ((1, 2), (0, 2))]",7,4,2.6184
MP02_1,1,20,"(2, 3)","(1, 0)",16,1,3,"[((0, 0), (1, 0)), ((1, 0), (0, 0)), ((1, 0), (2, 0)), ((2, 0), (1, 0)), ((0, 2), (1, 2)), ((1, 2), (0, 2)), ((2, 1), (3, 1)), ((3, 1), (2, 1)), ((1, 3), (2, 3)), ((2, 3), (1, 3)), ((2, 1), (2, 2)), ((2, 2), (2, 1)), ((3, 0), (3, 1)), ((3, 1), (3, 0)), ((1, 2), (2, 2)), ((2, 2), (1, 2)), ((0, 1), (0, 2)), ((0, 2), (0, 1)), ((1, 1), (2, 1)), ((2, 1), (1, 1)), ((1, 2), (1, 3)), ((1, 3), (1, 2)), ((2, 3), (3, 3)), ((3, 3), (2, 3)), ((2, 0), (3, 0)), ((3, 0), (2, 0)), ((2, 0), (2, 1)), ((2, 1), (2, 0)), ((2, 2), (3, 2)), ((3, 2), (2, 2)), ((0, 2), (0, 3)), ((0, 3), (0, 2))]",2,2,2.6205
MP02_1,1,21,"(2, 0)","(1, 3)",18,3,3,"[((3, 0), (3, 1)), ((3, 1), (3, 0)), ((0, 2), (1, 2)), ((1, 2), (0, 2)), ((0, 1), (1, 1)), ((1, 1), (0, 1)), ((0, 3), (1, 3)), ((1, 3), (0, 3)), ((1, 1), (2, 1)), ((2, 1), (1, 1)), ((0, 2), (0, 3)), ((0, 3), (0, 2)), ((2, 3), (3, 3)), ((3, 3), (2, 3)), ((1, 2), (2, 2)), ((2, 2), (1, 2)), ((1, 1), (1, 2)), ((1, 2), (1, 1)), ((0, 0), (1, 0)), ((1, 0), (0, 0)), ((2, 2), (3, 2)), ((3, 2), (2, 2)), ((3, 1), (3, 2)), ((3, 2), (3, 1)), ((1, 0), (1, 1)), ((1, 1), (1, 0)), ((0, 1), (0, 2)), ((0, 2), (0, 1)), ((1, 3), (2, 3)), ((2, 3), (1, 3)), ((2, 0), (3, 0)), ((3, 0), (2, 0)), ((2, 1), (2, 2)), ((2, 2), (2, 1)), ((3, 2), (3, 3)), ((3, 3), (3, 2))]",5,2,2.4232
MP02_1,1,22,"(0, 1)","(3, 2)",15,0,3,"[((0, 0), (0, 1)), ((0, 1), (0, 0)), ((1, 0), (2, 0)), ((2, 0), (1, 0)), ((2, 0), (3, 0)), ((3, 0), (2, 0)), ((0, 1), (0, 2)), ((0, 2), (0, 1)), ((2, 3), (3, 3)), ((3, 3), (2, 3)), ((2, 2), (2, 3)), ((2, 3), (2, 2)), ((3, 1), (3, 2)), ((3, 2), (3, 1)), ((0, 2), (1, 2)), ((1, 2), (0, 2)), ((1, 2), (2, 2)), ((2, 2), (1, 2)), ((0, 3), (1, 3)), ((1, 3), (0, 3)), ((1, 1), (1, 2)), ((1, 2), (1, 1)), ((3, 2), (3, 3)), ((3, 3), (3, 2)), ((0, 0), (1, 0)), ((1, 0), (0, 0)), ((1, 1), (2, 1)), ((2, 1), (1, 1)), ((1, 3), (2, 3)), ((2, 3), (1, 3))]",1,3,2.9643
MP02_1,1,23,"(0, 2)","(3, 1)",16,1,3,"[((1, 0), (2, 0)), ((2, 0), (1, 0)), ((2, 1), (2, 2)), ((2, 2), (2, 1)), ((2, 3), (3, 3)), ((3, 3), (2, 3)), ((1, 3), (2, 3)), ((2, 3), (1, 3)), ((0, 0), (0, 1)), ((0, 1), (0, 0)), ((0, 1), (0, 2)), ((0, 2), (0, 1)), ((2, 0), (3, 0)), ((3, 0), (2, 0)), ((2, 2), (2, 3)), ((2, 3), (2, 2)), ((0, 2), (0, 3)), ((0, 3), (0, 2)), ((0, 3), (1, 3)), ((1, 3), (0, 3)), ((1, 1), (2, 1)), ((2, 1), (1, 1)), ((3, 1), (3, 2)), ((3, 2), (3, 1)), ((1, 0), (1, 1)), ((1, 1), (1, 0)), ((0, 2), (1, 2)), ((1, 2), (0, 2)), ((2, 2), (3, 2)), ((3, 2), (2, 2)), ((0, 0), (1, 0)), ((1, 0), (0, 0))]",2,2,2.3492
MP02_1,1,24,"(0, 2)","(3, 1)",16,1,3,"[((0, 3), (1, 3)), ((1, 3), (0, 3)), ((1, 0), (1, 1)), ((1, 1), (1, 0)), ((3, 1), (3, 2)), ((3, 2), (3, 1)), ((2, 1), (3, 1)), ((3, 1), (2, 1)), ((1, 1), (1, 2)), ((1, 2), (1, 1)), ((0, 2), (0, 3)), ((0, 3), (0, 2)), ((2, 2), (2, 3)), ((2, 3), (2, 2)), ((2, 1), (2, 2)), ((2, 2), (2, 1)), ((1, 2), (1, 3)), ((1, 3), (1, 2)), ((1, 0), (2, 0)), ((2, 0), (1, 0)), ((3, 0), (3, 1)), ((3, 1), (3, 0)), ((0, 1), (1, 1)), ((1, 1), (0, 1)), ((0, 0), (0, 1)), ((0, 1), (0, 0)), ((3, 2), (3, 3)), ((3, 3), (3, 2)), ((1, 2), (2, 2)), ((2, 2), (1, 2)), ((1, 3), (2, 3)), ((2, 3), (1, 3))]",2,4,3.1805
MP02_1,1,25,"(0, 1)","(3, 2)",17,2,3,"[((3, 0), (3, 1)), ((3, 1), (3, 0)), ((3, 1), (3, 2)), ((3, 2), (3, 1)), ((1, 1), (2, 1)), ((2, 1), (1, 1)), ((2, 0), (3, 0)), ((3, 0), (2, 0)), ((1, 2), (1, 3)), ((1, 3), (1, 2)), ((3, 2), (3, 3)), ((3, 3), (3, 2)), ((2, 3), (3, 3)), ((3, 3), (2, 3)), ((0, 0), (0, 1)), ((0, 1), (0, 0)), ((2, 2), (3, 2)), ((3, 2), (2, 2)), ((1, 3), (2, 3)), ((2, 3), (1, 3)), ((2, 1), (3, 1)), ((3, 1), (2, 1)), ((0, 2), (1, 2)), ((1, 2), (0, 2)), ((1, 0), (1, 1)), ((1, 1), (1, 0)), ((2, 0), (2, 1)), ((2, 1), (2, 0)), ((0, 0), (1, 0)), ((1, 0), (0, 0)), ((0, 2), (0, 3)), ((0, 3), (0, 2)), ((0, 1), (0, 2)), ((0, 2), (0, 1))]",3,3,1.8516
MP02_1,1,26,"(1, 0)","(2, 3)",18,3,3,"[((3, 1), (3, 2)), ((3, 2), (3, 1)), ((3, 2), (3, 3)), ((3, 3), (3, 2)), ((0, 2), (0, 3)), ((0, 3), (0, 2)), ((0, 1), (0, 2)), ((0, 2), (0, 1)), ((2, 2), (2, 3)), ((2, 3), (2, 2)), ((2, 1), (3, 1)), ((3, 1), (2, 1)), ((1, 2), (2, 2)), ((2, 2), (1, 2)), ((2, 0), (3, 0)), ((3, 0), (2, 0)), ((1, 0), (1, 1)), ((1, 1), (1, 0)), ((1, 0), (2, 0)), ((2, 0), (1, 0)), ((1, 1), (1, 2)), ((1, 2), (1, 1)), ((2, 0), (2, 1)), ((2, 1), (2, 0)), ((2, 3), (3, 3)), ((3, 3), (2, 3)), ((0, 0), (1, 0)), ((1, 0), (0, 0)), ((0, 1), (1, 1)), ((1, 1), (0, 1)), ((1, 2), (1, 3)), ((1, 3), (1, 2)), ((1, 1), (2, 1)), ((2, 1), (1, 1)), ((1, 3), (2, 3)), ((2, 3), (1, 3))]",6,4,2.6493
MP02_1,1,27,"(1, 0)","(2, 3)",17,2,3,"[((1, 3), (2, 3)), ((2, 3), (1, 3)), ((3, 0), (3, 1)), ((3, 1), (3, 0)), ((1, 1), (2, 1)), ((2, 1), (1, 1)), ((3, 2), (3, 3)), ((3, 3), (3, 2)), ((1, 1), (1, 2)), ((1, 2), (1, 1)), ((2, 1), (3, 1)), ((3, 1), (2, 1)), ((3, 1), (3, 2)), ((3, 2), (3, 1)), ((0, 1), (0, 2)), ((0, 2), (0, 1)), ((0, 3), (1, 3)), ((1, 3), (0, 3)), ((0, 0), (0, 1)), ((0, 1), (0, 0)), ((0, 1), (1, 1)), ((1, 1), (0, 1)), ((2, 2), (3, 2)), ((3, 2), (2, 2)), ((1, 0), (1, 1)), ((1, 1), (1, 0)), ((1, 0), (2, 0)), ((2, 0), (1, 0)), ((1, 2), (1, 3)), ((1, 3), (1, 2)), ((2, 3), (3, 3)), ((3, 3), (2, 3)), ((2, 1), (2, 2)), ((2, 2), (2, 1))]",3,3,2.9306
MP02_1,1,28,"(2, 3)","(1, 0)",16,1,3,"[((2, 0), (3, 0)), ((3, 0), (2, 0)), ((0, 2), (1, 2)), ((1, 2), (0, 2)), ((0, 0), (0, 1)), ((0, 1), (0, 0)), ((3, 1), (3, 2)), ((3, 2), (3, 1)), ((2, 1), (3, 1)), ((3, 1), (2, 1)), ((0, 2), (0, 3)), ((0, 3), (0, 2)), ((1, 2), (2, 2)), ((2, 2), (1, 2)), ((0, 1), (1, 1)), ((1, 1), (0, 1)), ((0, 3), (1, 3)), ((1, 3), (0, 3)), ((3, 0), (3, 1)), ((3, 1), (3, 0)), ((1, 1), (1, 2)), ((1, 2), (1, 1)), ((1, 0), (1, 1)), ((1, 1), (1, 0)), ((1, 3), (2, 3)), ((2, 3), (1, 3)), ((1, 0), (2, 0)), ((2, 0), (1, 0)), ((2, 0), (2, 1)), ((2, 1), (2, 0)), ((3, 2), (3, 3)), ((3, 3), (3, 2))]",1,1,1.6868
MP02_1,1,29,"(1, 0)","(2, 3)",17,2,3,"[((0, 2), (1, 2)), ((1, 2), (0, 2)), ((0, 0), (0, 1)), ((0, 1), (0, 0)), ((0, 2), (0, 3)), ((0, 3), (0, 2)), ((1, 0), (2, 0)), ((2, 0), (1, 0)), ((2, 0), (3, 0)), ((3, 0), (2, 0)), ((2, 3), (3, 3)), ((3, 3), (2, 3)), ((1, 2), (1, 3)), ((1, 3), (1, 2)), ((2, 2), (3, 2)), ((3, 2), (2, 2)), ((0, 0), (1, 0)), ((1, 0), (0, 0)), ((0, 1), (1, 1)), ((1, 1), (0, 1)), ((0, 3), (1, 3)), ((1, 3), (0, 3)), ((1, 3), (2, 3)), ((2, 3), (1, 3)), ((3, 2), (3, 3)), ((3, 3), (3, 2)), ((2, 0), (2, 1)), ((2, 1), (2, 0)), ((3, 1), (3, 2)), ((3, 2), (3, 1)), ((0, 1), (0, 2)), ((0, 2), (0, 1)), ((3, 0), (3, 1)), ((3, 1), (3, 0))]",3,3,2.7347
MP02_1,1,30,"(1, 3)","(2, 0)",17,2,3,"[((0, 1), (0, 2)), ((0, 2), (0, 1)), ((2, 1), (2, 2)), ((2, 2), (2, 1)), ((2, 1), (3, 1)), ((3, 1), (2, 1)), ((3, 1), (3, 2)), ((3, 2), (3, 1)), ((0, 1), (1, 1)), ((1, 1), (0, 1)), ((2, 3), (3, 3)), ((3, 3), (2, 3)), ((1, 2), (1, 3)), ((1, 3), (1, 2)), ((1, 3), (2, 3)), ((2, 3), (1, 3)), ((2, 0), (3, 0)), ((3, 0), (2, 0)), ((3, 0), (3, 1)), ((3, 1), (3, 0)), ((1, 0), (1, 1)), ((1, 1), (1, 0)), ((0, 2), (0, 3)), ((0, 3), (0, 2)), ((0, 3), (1, 3)), ((1, 3), (0, 3)), ((3, 2), (3, 3)), ((3, 3), (3, 2)), ((0, 0), (1, 0)), ((1, 0), (0, 0)), ((1, 0), (2, 0)), ((2, 0), (1, 0)), ((1, 2), (2, 2)), ((2, 2), (1, 2))]",5,4,1.9072
MP02_1,1,31,"(2, 0)","(1, 3)",16,1,3,"[((0, 2), (0, 3)), ((0, 3), (0, 2)), ((1, 3), (2, 3)), ((2, 3), (1, 3)), ((2, 1), (3, 1)), ((3, 1), (2, 1)), ((0, 0), (0, 1)), ((0, 1), (0, 0)), ((1, 1), (2, 1)), ((2, 1), (1, 1)), ((1, 2), (1, 3)), ((1, 3), (1, 2)), ((2, 1), (2, 2)), ((2, 2), (2, 1)), ((0, 1), (1, 1)), ((1, 1), (0, 1)), ((1, 0), (1, 1)), ((1, 1), (1, 0)), ((0, 2), (1, 2)), ((1, 2), (0, 2)), ((2, 0), (2, 1)), ((2, 1), (2, 0)), ((1, 0), (2, 0)), ((2, 0), (1, 0)), ((3, 0), (3, 1)), ((3, 1), (3, 0)), ((3, 2), (3, 3)), ((3, 3), (3, 2)), ((1, 2), (2, 2)), ((2, 2), (1, 2)), ((2, 3), (3, 3)), ((3, 3), (2, 3))]",2,3,1.9618
MP02_1,1,32,"(3, 2)","(0, 1)",18,3,3,"[((2, 1), (2, 2)), ((2, 2), (2, 1)), ((0, 1), (1, 1)), ((1, 1), (0, 1)), ((0, 2), (0, 3)), ((0, 3), (0, 2)), ((2, 0), (2, 1)), ((2, 1), (2, 0)), ((1, 2), (2, 2)), ((2, 2), (1, 2)), ((0, 3), (1, 3)), ((1, 3), (0, 3)), ((1, 3), (2, 3)), ((2, 3), (1, 3)), ((3, 2), (3, 3)), ((3, 3), (3, 2)), ((3, 0), (3, 1)), ((3, 1), (3, 0)), ((1, 1), (2, 1)), ((2, 1), (1, 1)), ((2, 3), (3, 3)), ((3, 3), (2, 3)), ((2, 1), (3, 1)), ((3, 1), (2, 1)), ((0, 2), (1, 2)), ((1, 2), (0, 2)), ((0, 0), (0, 1)), ((0, 1), (0, 0)), ((1, 1), (1, 2)), ((1, 2), (1, 1)), ((2, 2), (2, 3)), ((2, 3), (2, 2)), ((0, 0), (1, 0)), ((1, 0), (0, 0)), ((0, 1), (0, 2)), ((0, 2), (0, 1))]",7,5,3.6665
MP02_1,1,33,"(3, 1)","(0, 2)",18,3,3,"[((2, 3), (3, 3)), ((3, 3), (2, 3)), ((2, 2), (3, 2)), ((3, 2), (2, 2)), ((0, 0), (1, 0)), ((1, 0), (0, 0)), ((0, 1), (0, 2)), ((0, 2), (0, 1)), ((2, 0), (2, 1)), ((2, 1), (2, 0)), ((0, 2), (1, 2)), ((1, 2), (0, 2)), ((2, 2), (2, 3)), ((2, 3), (2, 2)), ((0, 0), (0, 1)), ((0, 1), (0, 0)), ((2, 1), (2, 2)), ((2, 2), (2, 1)), ((3, 1), (3, 2)), ((3, 2), (3, 1)), ((0, 1), (1, 1)), ((1, 1), (0, 1)), ((3, 0), (3, 1)), ((3, 1), (3, 0)), ((1, 0), (1, 1)), ((1, 1), (1, 0)), ((1, 1), (2, 1)), ((2, 1), (1, 1)), ((2, 1), (3, 1)), ((3, 1), (2, 1)), ((1, 2), (2, 2)), ((2, 2), (1, 2)), ((1, 3), (2, 3)), ((2, 3), (1, 3)), ((0, 2), (0, 3)), ((0, 3), (0, 2))]",6,2,3.0216
MP02_1,1,34,"(0, 2)","(3, 1)",16,1,3,"[((1, 1), (2, 1)), ((2, 1), (1, 1)), ((0, 0), (0, 1)), ((0, 1), (0, 0)), ((2, 2), (2, 3)), ((2, 3), (2, 2)), ((3, 1), (3, 2)), ((3, 2), (3, 1)), ((2, 1), (3, 1)), ((3, 1), (2, 1)), ((1, 0), (1, 1)), ((1, 1), (1, 0)), ((1, 0), (2, 0)), ((2, 0), (1, 0)), ((3, 0), (3, 1)), ((3, 1), (3, 0)), ((0, 3), (1, 3)), ((1, 3), (0, 3)), ((2, 0), (3, 0)), ((3, 0), (2, 0)), ((0, 1), (0, 2)), ((0, 2), (0, 1)), ((1, 2), (2, 2)), ((2, 2), (1, 2)), ((0, 2), (1, 2)), ((1, 2), (0, 2)), ((0, 1), (1, 1)), ((1, 1), (0, 1)), ((1, 3), (2, 3)), ((2, 3), (1, 3)), ((2, 3), (3, 3)), ((3, 3), (2, 3))]",2,2,2.9242
MP02_1,1,35,"(3, 2)","(0, 1)",18,3,3,"[((1, 2), (1, 3)), ((1, 3), (1, 2)), ((1, 3), (2, 3)), ((2, 3), (1, 3)), ((0, 2), (1, 2)), ((1, 2), (0, 2)), ((1, 0), (2, 0)), ((2, 0), (1, 0)), ((0, 3), (1, 3)), ((1, 3), (0, 3)), ((2, 2), (3, 2)), ((3, 2), (2, 2)), ((3, 2), (3, 3)), ((3, 3), (3, 2)), ((3, 0), (3, 1)), ((3, 1), (3, 0)), ((0, 1), (0, 2)), ((0, 2), (0, 1)), ((1, 1), (1, 2)), ((1, 2), (1, 1)), ((2, 0), (3, 0)), ((3, 0), (2, 0)), ((2, 3), (3, 3)), ((3, 3), (2, 3)), ((0, 0), (0, 1)), ((0, 1), (0, 0)), ((1, 0), (1, 1)), ((1, 1), (1, 0)), ((2, 1), (2, 2)), ((2, 2), (2, 1)), ((0, 0), (1, 0)), ((1, 0), (0, 0)), ((2, 0), (2, 1)), ((2, 1), (2, 0)), ((1, 1), (2, 1)), ((2, 1), (1, 1))]",7,5,2.5542
MP02_1,1,36,"(0, 2)","(3, 1)",17,2,3,"[((3, 2), (3, 3)), ((3, 3), (3, 2)), ((1, 1), (2, 1)), ((2, 1), (1, 1)), ((3, 0), (3, 1)), ((3, 1), (3, 0)), ((3, 1), (3, 2)), ((3, 2), (3, 1)), ((0, 1), (0, 2)), ((0, 2), (0, 1)), ((1, 2), (2, 2)), ((2, 2), (1, 2)), ((1, 1), (1, 2)), ((1, 2), (1, 1)), ((0, 2), (1, 2)), ((1, 2), (0, 2)), ((2, 1), (3, 1)), ((3, 1), (2, 1)), ((2, 2), (2, 3)), ((2, 3), (2, 2)), ((1, 3), (2, 3)), ((2, 3), (1, 3)), ((2, 0), (3, 0)), ((3, 0), (2, 0)), ((1, 0), (2, 0)), ((2, 0), (1, 0)), ((0, 2), (0, 3)), ((0, 3), (0, 2)), ((0, 0), (0, 1)), ((0, 1), (0, 0)), ((1, 2), (1, 3)), ((1, 3), (1, 2)), ((2, 2), (3, 2)), ((3, 2), (2, 2))]",5,2,2.7371
MP02_1,1,37,"(1, 3)","(2, 0)",17,2,3,"[((0, 1), (0, 2)), ((0, 2), (0, 1)), ((2, 2), (3, 2)), ((3, 2), (2, 2)), ((1, 3), (2, 3)), ((2, 3), (1, 3)), ((0, 2), (0, 3)), ((0, 3), (0, 2)), ((3, 2), (3, 3)), ((3, 3), (3, 2)), ((0, 3), (1, 3)), ((1, 3), (0, 3)), ((0, 2), (1, 2)), ((1, 2), (0, 2)), ((0, 0), (1, 0)), ((1, 0), (0, 0)), ((3, 0), (3, 1)), ((3, 1), (3, 0)), ((1, 0), (2, 0)), ((2, 0), (1, 0)), ((1, 0), (1, 1)), ((1, 1), (1, 0)), ((3, 1), (3, 2)), ((3, 2), (3, 1)), ((2, 1), (3, 1)), ((3, 1), (2, 1)), ((1, 1), (2, 1)), ((2, 1), (1, 1)), ((1, 1), (1, 2)), ((1, 2), (1, 1)), ((2, 3), (3, 3)), ((3, 3), (2, 3)), ((2, 1), (2, 2)), ((2, 2), (2, 1))]",3,4,2.8217
MP02_1,1,38,"(1, 3)","(2, 0)",19,4,3,"[((2, 2), (3, 2)), ((3, 2), (2, 2)), ((2, 0), (2, 1)), ((2, 1), (2, 0)), ((0, 1), (1, 1)), ((1, 1), (0, 1)), ((2, 1), (3, 1)), ((3, 1), (2, 1)), ((1, 1), (2, 1)), ((2, 1), (1, 1)), ((0, 1), (0, 2)), ((0, 2), (0, 1)), ((3, 0), (3, 1)), ((3, 1), (3, 0)), ((2, 3), (3, 3)), ((3, 3), (2, 3)), ((0, 3), (1, 3)), ((1, 3), (0, 3)), ((0, 0), (0, 1)), ((0, 1), (0, 0)), ((1, 0), (2, 0)), ((2, 0), (1, 0)), ((3, 1), (3, 2)), ((3, 2), (3, 1)), ((1, 2), (1, 3)), ((1, 3), (1, 2)), ((3, 2), (3, 3)), ((3, 3), (3, 2)), ((0, 2), (0, 3)), ((0, 3), (0, 2)), ((1, 0), (1, 1)), ((1, 1), (1, 0)), ((1, 1), (1, 2)), ((1, 2), (1, 1)), ((2, 0), (3, 0)), ((3, 0), (2, 0)), ((2, 2), (2, 3)), ((2, 3), (2, 2))]",6,4,3.3683
MP02_1,1,39,"(2, 0)","(1, 3)",18,3,3,"[((0, 0), (1, 0)), ((1, 0), (0, 0)), ((1, 2), (1, 3)), ((1, 3), (1, 2)), ((2, 2), (2, 3)), ((2, 3), (2, 2)), ((1, 2), (2, 2)), ((2, 2), (1, 2)), ((0, 1), (0, 2)), ((0, 2), (0, 1)), ((1, 1), (2, 1)), ((2, 1), (1, 1)), ((2, 3), (3, 3)), ((3, 3), (2, 3)), ((2, 1), (2, 2)), ((2, 2), (2, 1)), ((3, 0), (3, 1)), ((3, 1), (3, 0)), ((1, 3), (2, 3)), ((2, 3), (1, 3)), ((2, 1), (3, 1)), ((3, 1), (2, 1)), ((3, 2), (3, 3)), ((3, 3), (3, 2)), ((2, 0), (3, 0)), ((3, 0), (2, 0)), ((0, 0), (0, 1)), ((0, 1), (0, 0)), ((1, 0), (2, 0)), ((2, 0), (1, 0)), ((1, 1), (1, 2)), ((1, 2), (1, 1)), ((0, 2), (0, 3)), ((0, 3), (0, 2)), ((3, 1), (3, 2)), ((3, 2), (3, 1))]",7,3,2.1874
MP02_1,1,40,"(0, 1)","(3, 2)",17,2,3,"[((0, 1), (1, 1)), ((1, 1), (0, 1)), ((1, 1), (1, 2)), ((1, 2), (1, 1)), ((3, 1), (3, 2)), ((3, 2), (3, 1)), ((2, 2), (2, 3)), ((2, 3), (2, 2)), ((2, 1), (3, 1)), ((3, 1), (2, 1)), ((3, 2), (3, 3)), ((3, 3), (3, 2)), ((1, 0), (1, 1)), ((1, 1), (1, 0)), ((3, 0), (3, 1)), ((3, 1), (3, 0)), ((2, 0), (2, 1)), ((2, 1), (2, 0)), ((0, 2), (0, 3)), ((0, 3), (0, 2)), ((2, 1), (2, 2)), ((2, 2), (2, 1)), ((1, 3), (2, 3)), ((2, 3), (1, 3)), ((0, 0), (0, 1)), ((0, 1), (0, 0)), ((1, 2), (2, 2)), ((2, 2), (1, 2)), ((1, 2), (1, 3)), ((1, 3), (1, 2)), ((0, 0), (1, 0)), ((1, 0), (0, 0)), ((0, 2), (1, 2)), ((1, 2), (0, 2))]",4,6,1.6535
MP02_1,1,41,"(3, 1)","(0, 2)",16,1,3,"[((1, 3), (2, 3)), ((2, 3), (1, 3)), ((2, 0), (3, 0)), ((3, 0), (2, 0)), ((1, 2), (2, 2)), ((2, 2), (1, 2)), ((0, 3), (1, 3)), ((1, 3), (0, 3)), ((0, 0), (0, 1)), ((0, 1), (0, 0)), ((2, 2), (3, 2)), ((3, 2), (2, 2)), ((1, 0), (1, 1)), ((1, 1), (1, 0)), ((2, 3), (3, 3)), ((3, 3), (2, 3)), ((1, 2), (1, 3)), ((1, 3), (1, 2)), ((3, 1), (3, 2)), ((3, 2), (3, 1)), ((0, 2), (0, 3)), ((0, 3), (0, 2)), ((1, 0), (2, 0)), ((2, 0), (1, 0)), ((2, 1), (2, 2)), ((2, 2), (2, 1)), ((0, 1), (1, 1)), ((1, 1), (0, 1)), ((2, 0), (2, 1)), ((2, 1), (2, 0)), ((1, 1), (2, 1)), ((2, 1), (1, 1))]",1,1,3.2393
MP02_1,1,42,"(3, 2)","(0, 1)",18,3,3,"[((0, 3), (1, 3)), ((1, 3), (0, 3)), ((1, 1), (2, 1)), ((2, 1), (1, 1)), ((1, 0), (1, 1)), ((1, 1), (1, 0)), ((2, 1), (3, 1)), ((3, 1), (2, 1)), ((3, 0), (3, 1)), ((3, 1), (3, 0)), ((3, 2), (3, 3)), ((3, 3), (3, 2)), ((1, 2), (1, 3)), ((1, 3), (1, 2)), ((2, 2), (3, 2)), ((3, 2), (2, 2)), ((0, 1), (1, 1)), ((1, 1), (0, 1)), ((3, 1), (3, 2)), ((3, 2), (3, 1)), ((2, 2), (2, 3)), ((2, 3), (2, 2)), ((0, 1), (0, 2)), ((0, 2), (0, 1)), ((2, 0), (3, 0)), ((3, 0), (2, 0)), ((0, 0), (1, 0)), ((1, 0), (0, 0)), ((0, 0), (0, 1)), ((0, 1), (0, 0)), ((1, 2), (2, 2)), ((2, 2), (1, 2)), ((1, 3), (2, 3)), ((2, 3), (1, 3)), ((1, 0), (2, 0)), ((2, 0), (1, 0))]",4,2,2.0527
MP02_1,1,43,"(0, 1)","(3, 2)",17,2,3,"[((2, 1), (3, 1)), ((3, 1), (2, 1)), ((0, 2), (0, 3)), ((0, 3), (0, 2)), ((0, 2), (1, 2)), ((1, 2), (0, 2)), ((1, 0), (2, 0)), ((2, 0), (1, 0)), ((2, 0), (3, 0)), ((3, 0), (2, 0)), ((0, 1), (1, 1)), ((1, 1), (0, 1)), ((3, 1), (3, 2)), ((3, 2), (3, 1)), ((0, 1), (0, 2)), ((0, 2), (0, 1)), ((2, 2), (3, 2)), ((3, 2), (2, 2)), ((1, 2), (1, 3)), ((1, 3), (1, 2)), ((1, 1), (1, 2)), ((1, 2), (1, 1)), ((1, 0), (1, 1)), ((1, 1), (1, 0)), ((2, 1), (2, 2)), ((2, 2), (2, 1)), ((0, 0), (0, 1)), ((0, 1), (0, 0)), ((1, 3), (2, 3)), ((2, 3), (1, 3)), ((2, 3), (3, 3)), ((3, 3), (2, 3)), ((2, 0), (2, 1)), ((2, 1), (2, 0))]",4,2,2.3999
MP02_1,1,44,"(2, 3)","(1, 0)",17,2,3,"[((2, 2), (2, 3)), ((2, 3), (2, 2)), ((2, 3), (3, 3)), ((3, 3), (2, 3)), ((3, 2), (3, 3)), ((3, 3), (3, 2)), ((0, 2), (1, 2)), ((1, 2), (0, 2)), ((0, 3), (1, 3)), ((1, 3), (0, 3)), ((2, 1), (2, 2)), ((2, 2), (2, 1)), ((1, 2), (1, 3)), ((1, 3), (1, 2)), ((2, 2), (3, 2)), ((3, 2), (2, 2)), ((1, 3), (2, 3)), ((2, 3), (1, 3)), ((2, 1), (3, 1)), ((3, 1), (2, 1)), ((1, 1), (1, 2)), ((1, 2), (1, 1)), ((3, 1), (3, 2)), ((3, 2), (3, 1)), ((0, 0), (1, 0)), ((1, 0), (0, 0)), ((3, 0), (3, 1)), ((3, 1), (3, 0)), ((1, 0), (1, 1)), ((1, 1), (1, 0)), ((1, 0), (2, 0)), ((2, 0), (1, 0)), ((0, 0), (0, 1)), ((0, 1), (0, 0))]",5,1,3.102
MP02_1,1,45,"(1, 3)","(2, 0)",19,4,3,"[((2, 3), (3, 3)), ((3, 3), (2, 3)), ((3, 2), (3, 3)), ((3, 3), (3, 2)), ((0, 1), (1, 1)), ((1, 1), (0, 1)), ((2, 1), (3, 1)), ((3, 1), (2, 1)), ((0, 2), (1, 2)), ((1, 2), (0, 2)), ((1, 2), (1, 3)), ((1, 3), (1, 2)), ((0, 2), (0, 3)), ((0, 3), (0, 2)), ((1, 1), (1, 2)), ((1, 2), (1, 1)), ((2, 2), (3, 2)), ((3, 2), (2, 2)), ((0, 0), (0, 1)), ((0, 1), (0, 0)), ((2, 0), (2, 1)), ((2, 1), (2, 0)), ((2, 2), (2, 3)), ((2, 3), (2, 2)), ((2, 0), (3, 0)), ((3, 0), (2, 0)), ((0, 1), (0, 2)), ((0, 2), (0, 1)), ((0, 0), (1, 0)), ((1, 0), (0, 0)), ((1, 3), (2, 3)), ((2, 3), (1, 3)), ((2, 1), (2, 2)), ((2, 2), (2, 1)), ((1, 0), (1, 1)), ((1, 1), (1, 0)), ((3, 1), (3, 2)), ((3, 2), (3, 1))]",4,7,1.288
MP02_1,1,46,"(0, 1)","(3, 2)",15,0,3,"[((0, 1), (0, 2)), ((0, 2), (0, 1)), ((0, 0), (0, 1)), ((0, 1), (0, 0)), ((1, 0), (1, 1)), ((1, 1), (1, 0)), ((1, 0), (2, 0)), ((2, 0), (1, 0)), ((3, 2), (3, 3)), ((3, 3), (3, 2)), ((3, 1), (3, 2)), ((3, 2), (3, 1)), ((0, 1), (1, 1)), ((1, 1), (0, 1)), ((3, 0), (3, 1)), ((3, 1), (3, 0)), ((2, 2), (2, 3)), ((2, 3), (2, 2)), ((2, 1), (2, 2)), ((2, 2), (2, 1)), ((0, 2), (0, 3)), ((0, 3), (0, 2)), ((1, 2), (1, 3)), ((1, 3), (1, 2)), ((1, 3), (2, 3)), ((2, 3), (1, 3)), ((2, 2), (3, 2)), ((3, 2), (2, 2)), ((1, 1), (2, 1)), ((2, 1), (1, 1))]",1,3,3.552
MP02_1,1,47,"(1, 3)","(2, 0)",19,4,3,"[((0, 2), (0, 3)), ((0, 3), (0, 2)), ((0, 3), (1, 3)), ((1, 3), (0, 3)), ((2, 0), (2, 1)), ((2, 1), (2, 0)), ((0, 1), (0, 2)), ((0, 2), (0, 1)), ((3, 1), (3, 2)), ((3, 2), (3, 1)), ((0, 0), (0, 1)), ((0, 1), (0, 0)), ((1, 3), (2, 3)), ((2, 3), (1, 3)), ((2, 0), (3, 0)), ((3, 0), (2, 0)), ((1, 1), (2, 1)), ((2, 1), (1, 1)), ((3, 0), (3, 1)), ((3, 1), (3, 0)), ((2, 2), (3, 2)), ((3, 2), (2, 2)), ((0, 1), (1, 1)), ((1, 1), (0, 1)), ((1, 1), (1, 2)), ((1, 2), (1, 1)), ((2, 2), (2, 3)), ((2, 3), (2, 2)), ((0, 2), (1, 2)), ((1, 2), (0, 2)), ((2, 3), (3, 3)), ((3, 3), (2, 3)), ((3, 2), (3, 3)), ((3, 3), (3, 2)), ((1, 0), (1, 1)), ((1, 1), (1, 0)), ((1, 0), (2, 0)), ((2, 0), (1, 0))]",6,5,2.8745
MP02_1,1,48,"(0, 1)","(3, 2)",15,0,3,"[((0, 1), (1, 1)), ((1, 1), (0, 1)), ((1, 3), (2, 3)), ((2, 3), (1, 3)), ((2, 1), (3, 1)), ((3, 1), (2, 1)), ((0, 1), (0, 2)), ((0, 2), (0, 1)), ((2, 0), (2, 1)), ((2, 1), (2, 0)), ((1, 0), (1, 1)), ((1, 1), (1, 0)), ((0, 2), (1, 2)), ((1, 2), (0, 2)), ((0, 0), (0, 1)), ((0, 1), (0, 0)), ((2, 2), (2, 3)), ((2, 3), (2, 2)), ((2, 0), (3, 0)), ((3, 0), (2, 0)), ((3, 2), (3, 3)), ((3, 3), (3, 2)), ((1, 1), (2, 1)), ((2, 1), (1, 1)), ((0, 2), (0, 3)), ((0, 3), (0, 2)), ((1, 2), (2, 2)), ((2, 2), (1, 2)), ((3, 1), (3, 2)), ((3, 2), (3, 1))]",1,4,2.6527
MP02_1,1,49,"(2, 3)","(1, 0)",18,3,3,"[((0, 0), (1, 0)), ((1, 0), (0, 0)), ((1, 1), (1, 2)), ((1, 2), (1, 1)), ((1, 2), (2, 2)), ((2, 2), (1, 2)), ((0, 0), (0, 1)), ((0, 1), (0, 0)), ((2, 0), (2, 1)), ((2, 1), (2, 0)), ((1, 3), (2, 3)), ((2, 3), (1, 3)), ((0, 1), (1, 1)), ((1, 1), (0, 1)), ((3, 1), (3, 2)), ((3, 2), (3, 1)), ((2, 3), (3, 3)), ((3, 3), (2, 3)), ((0, 1), (0, 2)), ((0, 2), (0, 1)), ((2, 1), (3, 1)), ((3, 1), (2, 1)), ((3, 0), (3, 1)), ((3, 1), (3, 0)), ((0, 2), (1, 2)), ((1, 2), (0, 2)), ((2, 2), (3, 2)), ((3, 2), (2, 2)), ((2, 2), (2, 3)), ((2, 3), (2, 2)), ((3, 2), (3, 3)), ((3, 3), (3, 2)), ((1, 0), (2, 0)), ((2, 0), (1, 0)), ((0, 2), (0, 3)), ((0, 3), (0, 2))]",6,4,2.9053
MP02_1,1,50,"(3, 1)","(0, 2)",17,2,3,"[((1, 1), (1, 2)), ((1, 2), (1, 1)), ((1, 3), (2, 3)), ((2, 3), (1, 3)), ((0, 1), (0, 2)), ((0, 2), (0, 1)), ((3, 1), (3, 2)), ((3, 2), (3, 1)), ((0, 3), (1, 3)), ((1, 3), (0, 3)), ((0, 2), (1, 2)), ((1, 2), (0, 2)), ((2, 1), (2, 2)), ((2, 2), (2, 1)), ((1, 0), (1, 1)), ((1, 1), (1, 0)), ((1, 0), (2, 0)), ((2, 0), (1, 0)), ((1, 1), (2, 1)), ((2, 1), (1, 1)), ((0, 1), (1, 1)), ((1, 1), (0, 1)), ((0, 0), (0, 1)), ((0, 1), (0, 0)), ((2, 0), (3, 0)), ((3, 0), (2, 0)), ((2, 2), (3, 2)), ((3, 2), (2, 2)), ((3, 2), (3, 3)), ((3, 3), (3, 2)), ((2, 2), (2, 3)), ((2, 3), (2, 2)), ((1, 2), (1, 3)), ((1, 3), (1, 2))]",4,3,2.0191
MP02_1,1,51,"(3, 2)","(0, 1)",16,1,3,"[((2, 2), (3, 2)), ((3, 2), (2, 2)), ((0, 1), (0, 2)), ((0, 2), (0, 1)), ((0, 0), (0, 1)), ((0, 1), (0, 0)), ((2, 1), (3, 1)), ((3, 1), (2, 1)), ((2, 0), (3, 0)), ((3, 0), (2, 0)), ((1, 1), (2, 1)), ((2, 1), (1, 1)), ((1, 1), (1, 2)), ((1, 2), (1, 1)), ((0, 0), (1, 0)), ((1, 0), (0, 0)), ((3, 2), (3, 3)), ((3, 3), (3, 2)), ((1, 3), (2, 3)), ((2, 3), (1, 3)), ((3, 1), (3, 2)), ((3, 2), (3, 1)), ((3, 0), (3, 1)), ((3, 1), (3, 0)), ((0, 3), (1, 3)), ((1, 3), (0, 3)), ((0, 2), (0, 3)), ((0, 3), (0, 2)), ((0, 1), (1, 1)), ((1, 1), (0, 1)), ((2, 1), (2, 2)), ((2, 2), (2, 1))]",2,2,1.7864
MP02_1,1,52,"(2, 3)","(1, 0)",18,3,3,"[((0, 2), (1, 2)), ((1, 2), (0, 2)), ((2, 0), (3, 0)), ((3, 0), (2, 0)), ((0, 0), (0, 1)), ((0, 1), (0, 0)), ((3, 0), (3, 1)), ((3, 1), (3, 0)), ((2, 0), (2, 1)), ((2, 1), (2, 0)), ((0, 2), (0, 3)), ((0, 3), (0, 2)), ((1, 3), (2, 3)), ((2, 3), (1, 3)), ((0, 1), (0, 2)), ((0, 2), (0, 1)), ((2, 2), (3, 2)), ((3, 2), (2, 2)), ((0, 0), (1, 0)), ((1, 0), (0, 0)), ((1, 2), (2, 2)), ((2, 2), (1, 2)), ((0, 3), (1, 3)), ((1, 3), (0, 3)), ((1, 1), (1, 2)), ((1, 2), (1, 1)), ((1, 1), (2, 1)), ((2, 1), (1, 1)), ((3, 2), (3, 3)), ((3, 3), (3, 2)), ((1, 0), (1, 1)), ((1, 1), (1, 0)), ((2, 3), (3, 3)), ((3, 3), (2, 3)), ((2, 1), (2, 2)), ((2, 2), (2, 1))]",7,6,1.3376
MP02_1,1,53,"(1, 0)","(2, 3)",16,1,3,"[((1, 0), (2, 0)), ((2, 0), (1, 0)), ((0, 1), (0, 2)), ((0, 2), (0, 1)), ((0, 3), (1, 3)), ((1, 3), (0, 3)), ((3, 2), (3, 3)), ((3, 3), (3, 2)), ((2, 2), (2, 3)), ((2, 3), (2, 2)), ((2, 1), (2, 2)), ((2, 2), (2, 1)), ((1, 2), (1, 3)), ((1, 3), (1, 2)), ((2, 0), (3, 0)), ((3, 0), (2, 0)), ((0, 2), (0, 3)), ((0, 3), (0, 2)), ((2, 1), (3, 1)), ((3, 1), (2, 1)), ((3, 1), (3, 2)), ((3, 2), (3, 1)), ((0, 0), (1, 0)), ((1, 0), (0, 0)), ((1, 1), (2, 1)), ((2, 1), (1, 1)), ((0, 0), (0, 1)), ((0, 1), (0, 0)), ((0, 2), (1, 2)), ((1, 2), (0, 2)), ((1, 0), (1, 1)), ((1, 1), (1, 0))]",1,2,2.3893
MP02_1,1,54,"(0, 2)","(3, 1)",17,2,3,"[((1, 2), (1, 3)), ((1, 3), (1, 2)), ((0, 1), (1, 1)), ((1, 1), (0, 1)), ((3, 0), (3, 1)), ((3, 1), (3, 0)), ((3, 1), (3, 2)), ((3, 2), (3, 1)), ((0, 2), (0, 3)), ((0, 3), (0, 2)), ((0, 0), (1, 0)), ((1, 0), (0, 0)), ((2, 3), (3, 3)), ((3, 3), (2, 3)), ((2, 0), (3, 0)), ((3, 0), (2, 0)), ((2, 2), (2, 3)), ((2, 3), (2, 2)), ((0, 0), (0, 1)), ((0, 1), (0, 0)), ((2, 2), (3, 2)), ((3, 2), (2, 2)), ((0, 2), (1, 2)), ((1, 2), (0, 2)), ((1, 0), (2, 0)), ((2, 0), (1, 0)), ((1, 2), (2, 2)), ((2, 2), (1, 2)), ((2, 1), (3, 1)), ((3, 1), (2, 1)), ((1, 0), (1, 1)), ((1, 1), (1, 0)), ((0, 1), (0, 2)), ((0, 2), (0, 1))]",3,2,2.2375
MP02_1,1,55,"(3, 1)","(0, 2)",16,1,3,"[((2, 0), (2, 1)), ((2, 1), (2, 0)), ((2, 0), (3, 0)), ((3, 0), (2, 0)), ((0, 3), (1, 3)), ((1, 3), (0, 3)), ((1, 1), (1, 2)), ((1, 2), (1, 1)), ((1, 3), (2, 3)), ((2, 3), (1, 3)), ((2, 2), (3, 2)), ((3, 2), (2, 2)), ((2, 3), (3, 3)), ((3, 3), (2, 3)), ((0, 0), (1, 0)), ((1, 0), (0, 0)), ((3, 0), (3, 1)), ((3, 1), (3, 0)), ((0, 2), (1, 2)), ((1, 2), (0, 2)), ((0, 0), (0, 1)), ((0, 1), (0, 0)), ((0, 1), (0, 2)), ((0, 2), (0, 1)), ((1, 1), (2, 1)), ((2, 1), (1, 1)), ((1, 0), (2, 0)), ((2, 0), (1, 0)), ((3, 2), (3, 3)), ((3, 3), (3, 2)), ((1, 2), (2, 2)), ((2, 2), (1, 2))]",2,2,2.6025
MP02_1,1,56,"(2, 3)","(1, 0)",19,4,3,"[((0, 1), (0, 2)), ((0, 2), (0, 1)), ((3, 0), (3, 1)), ((3, 1), (3, 0)), ((2, 1), (2, 2)), ((2, 2), (2, 1)), ((0, 2), (0, 3)), ((0, 3), (0, 2)), ((1, 0), (1, 1)), ((1, 1), (1, 0)), ((1, 1), (1, 2)), ((1, 2), (1, 1)), ((3, 1), (3, 2)), ((3, 2), (3, 1)), ((0, 0), (1, 0)), ((1, 0), (0, 0)), ((1, 2), (1, 3)), ((1, 3), (1, 2)), ((2, 1), (3, 1)), ((3, 1), (2, 1)), ((2, 3), (3, 3)), ((3, 3), (2, 3)), ((1, 0), (2, 0)), ((2, 0), (1, 0)), ((0, 1), (1, 1)), ((1, 1), (0, 1)), ((2, 0), (3, 0)), ((3, 0), (2, 0)), ((0, 3), (1, 3)), ((1, 3), (0, 3)), ((2, 0), (2, 1)), ((2, 1), (2, 0)), ((2, 2), (3, 2)), ((3, 2), (2, 2)), ((0, 2), (1, 2)), ((1, 2), (0, 2)), ((3, 2), (3, 3)), ((3, 3), (3, 2))]",4,4,1.4874
MP02_1,1,57,"(0, 1)","(3, 2)",17,2,3,"[((2, 0), (3, 0)), ((3, 0), (2, 0)), ((0, 1), (0, 2)), ((0, 2), (0, 1)), ((0, 1), (1, 1)), ((1, 1), (0, 1)), ((2, 0), (2, 1)), ((2, 1), (2, 0)), ((1, 1), (1, 2)), ((1, 2), (1, 1)), ((2, 2), (3, 2)), ((3, 2), (2, 2)), ((0, 0), (1, 0)), ((1, 0), (0, 0)), ((1, 2), (2, 2)), ((2, 2), (1, 2)), ((0, 3), (1, 3)), ((1, 3), (0, 3)), ((1, 0), (1, 1)), ((1, 1), (1, 0)), ((0, 2), (0, 3)), ((0, 3), (0, 2)), ((1, 3), (2, 3)), ((2, 3), (1, 3)), ((1, 0), (2, 0)), ((2, 0), (1, 0)), ((0, 0), (0, 1)), ((0, 1), (0, 0)), ((2, 1), (3, 1)), ((3, 1), (2, 1)), ((2, 3), (3, 3)), ((3, 3), (2, 3)), ((0, 2), (1, 2)), ((1, 2), (0, 2))]",5,1,2.4058
MP02_1,1,58,"(3, 1)","(0, 2)",17,2,3,"[((1, 1), (2, 1)), ((2, 1), (1, 1)), ((1, 3), (2, 3)), ((2, 3), (1, 3)), ((1, 1), (1, 2)), ((1, 2), (1, 1)), ((3, 0), (3, 1)), ((3, 1), (3, 0)), ((2, 3), (3, 3)), ((3, 3), (2, 3)), ((0, 0), (0, 1)), ((0, 1), (0, 0)), ((1, 0), (1, 1)), ((1, 1), (1, 0)), ((3, 1), (3, 2)), ((3, 2), (3, 1)), ((2, 0), (3, 0)), ((3, 0), (2, 0)), ((2, 1), (2, 2)), ((2, 2), (2, 1)), ((1, 2), (2, 2)), ((2, 2), (1, 2)), ((0, 1), (0, 2)), ((0, 2), (0, 1)), ((0, 0), (1, 0)), ((1, 0), (0, 0)), ((3, 2), (3, 3)), ((3, 3), (3, 2)), ((2, 1), (3, 1)), ((3, 1), (2, 1)), ((0, 1), (1, 1)), ((1, 1), (0, 1)), ((0, 3), (1, 3)), ((1, 3), (0, 3))]",4,3,2.6179
MP02_1,1,59,"(3, 2)","(0, 1)",17,2,3,"[((0, 1), (0, 2)), ((0, 2), (0, 1)), ((0, 0), (0, 1)), ((0, 1), (0, 0)), ((3, 1), (3, 2)), ((3, 2), (3, 1)), ((2, 1), (3, 1)), ((3, 1), (2, 1)), ((1, 2), (2, 2)), ((2, 2), (1, 2)), ((3, 0), (3, 1)), ((3, 1), (3, 0)), ((0, 2), (0, 3)), ((0, 3), (0, 2)), ((2, 0), (2, 1)), ((2, 1), (2, 0)), ((2, 2), (3, 2)), ((3, 2), (2, 2)), ((2, 0), (3, 0)), ((3, 0), (2, 0)), ((2, 3), (3, 3)), ((3, 3), (2, 3)), ((3, 2), (3, 3)), ((3, 3), (3, 2)), ((1, 0), (1, 1)), ((1, 1), (1, 0)), ((1, 1), (2, 1)), ((2, 1), (1, 1)), ((0, 0), (1, 0)), ((1, 0), (0, 0)), ((1, 2), (1, 3)), ((1, 3), (1, 2)), ((0, 2), (1, 2)), ((1, 2), (0, 2))]",3,5,2.8062
MP02_1,1,60,"(2, 3)","(1, 0)",18,3,3,"[((1, 1), (2, 1)), ((2, 1), (1, 1)), ((3, 0), (3, 1)), ((3, 1), (3, 0)), ((2, 0), (3, 0)), ((3, 0), (2, 0)), ((2, 2), (3, 2)), ((3, 2), (2, 2)), ((1, 3), (2, 3)), ((2, 3), (1, 3)), ((2, 3), (3, 3)), ((3, 3), (2, 3)), ((0, 1), (1, 1)), ((1, 1), (0, 1)), ((2, 0), (2, 1)), ((2, 1), (2, 0)), ((0, 0), (1, 0)), ((1, 0), (0, 0)), ((1, 1), (1, 2)), ((1, 2), (1, 1)), ((0, 0), (0, 1)), ((0, 1), (0, 0)), ((2, 2), (2, 3)), ((2, 3), (2, 2)), ((0, 2), (1, 2)), ((1, 2), (0, 2)), ((1, 2), (1, 3)), ((1, 3), (1, 2)), ((0, 2), (0, 3)), ((0, 3), (0, 2)), ((1, 0), (1, 1)), ((1, 1), (1, 0)), ((0, 3), (1, 3)), ((1, 3), (0, 3)), ((2, 1), (3, 1)), ((3, 1), (2, 1))]",4,5,2.5557
MP02_1,1,61,"(3, 1)","(0, 2)",17,2,3,"[((1, 2), (2, 2)), ((2, 2), (1, 2)), ((0, 0), (0, 1)), ((0, 1), (0, 0)), ((3, 1), (3, 2)), ((3, 2), (3, 1)), ((2, 0), (3, 0)), ((3, 0), (2, 0)), ((0, 2), (0, 3)), ((0, 3), (0, 2)), ((2, 1), (2, 2)), ((2, 2), (2, 1)), ((1, 2), (1, 3)), ((1, 3), (1, 2)), ((0, 0), (1, 0)), ((1, 0), (0, 0)), ((2, 3), (3, 3)), ((3, 3), (2, 3)), ((3, 2), (3, 3)), ((3, 3), (3, 2)), ((1, 0), (1, 1)), ((1, 1), (1, 0)), ((1, 1), (1, 2)), ((1, 2), (1, 1)), ((1, 0), (2, 0)), ((2, 0), (1, 0)), ((2, 2), (2, 3)), ((2, 3), (2, 2)), ((3, 0), (3, 1)), ((3, 1), (3, 0)), ((2, 1), (3, 1)), ((3, 1), (2, 1)), ((0, 1), (0, 2)), ((0, 2), (0, 1))]",5,3,3.1923
MP02_1,1,62,"(1, 3)","(2, 0)",18,3,3,"[((2, 2), (2, 3)), ((2, 3), (2, 2)), ((2, 0), (3, 0)), ((3, 0), (2, 0)), ((0, 0), (1, 0)), ((1, 0), (0, 0)), ((0, 1), (0, 2)), ((0, 2), (0, 1)), ((1, 2), (2, 2)), ((2, 2), (1, 2)), ((3, 1), (3, 2)), ((3, 2), (3, 1)), ((2, 1), (3, 1)), ((3, 1), (2, 1)), ((0, 1), (1, 1)), ((1, 1), (0, 1)), ((1, 1), (1, 2)), ((1, 2), (1, 1)), ((1, 0), (2, 0)), ((2, 0), (1, 0)), ((2, 0), (2, 1)), ((2, 1), (2, 0)), ((0, 2), (0, 3)), ((0, 3), (0, 2)), ((2, 1), (2, 2)), ((2, 2), (2, 1)), ((3, 2), (3, 3)), ((3, 3), (3, 2)), ((1, 0), (1, 1)), ((1, 1), (1, 0)), ((2, 2), (3, 2)), ((3, 2), (2, 2)), ((3, 0), (3, 1)), ((3, 1), (3, 0)), ((1, 3), (2, 3)), ((2, 3), (1, 3))]",7,4,2.8038
MP02_1,1,63,"(3, 2)","(0, 1)",18,3,3,"[((1, 3), (2, 3)), ((2, 3), (1, 3)), ((2, 0), (3, 0)), ((3, 0), (2, 0)), ((0, 0), (1, 0)), ((1, 0), (0, 0)), ((2, 2), (2, 3)), ((2, 3), (2, 2)), ((1, 2), (1, 3)), ((1, 3), (1, 2)), ((0, 2), (1, 2)), ((1, 2), (0, 2)), ((0, 3), (1, 3)), ((1, 3), (0, 3)), ((1, 1), (2, 1)), ((2, 1), (1, 1)), ((0, 0), (0, 1)), ((0, 1), (0, 0)), ((0, 2), (0, 3)), ((0, 3), (0, 2)), ((0, 1), (1, 1)), ((1, 1), (0, 1)), ((1, 0), (1, 1)), ((1, 1), (1, 0)), ((3, 0), (3, 1)), ((3, 1), (3, 0)), ((1, 1), (1, 2)), ((1, 2), (1, 1)), ((2, 1), (2, 2)), ((2, 2), (2, 1)), ((3, 1), (3, 2)), ((3, 2), (3, 1)), ((2, 2), (3, 2)), ((3, 2), (2, 2)), ((2, 3), (3, 3)), ((3, 3), (2, 3))]",6,3,2.4682
MP02_1,2,1,"(3, 1)","(0, 2)",16,1,5,"[((0, 1), (0, 2)), ((0, 2), (0, 1)), ((2, 1), (2, 2)), ((2, 2), (2, 1)), ((3, 2), (3, 3)), ((3, 3), (3, 2)), ((2, 0), (3, 0)), ((3, 0), (2, 0)), ((0, 0), (1, 0)), ((1, 0), (0, 0)), ((0, 2), (0, 3)), ((0, 3), (0, 2)), ((2, 0), (2, 1)), ((2, 1), (2, 0)), ((1, 0), (2, 0)), ((2, 0), (1, 0)), ((1, 0), (1, 1)), ((1, 1), (1, 0)), ((0, 2), (1, 2)), ((1, 2), (0, 2)), ((1, 2), (1, 3)), ((1, 3), (1, 2)), ((2, 2), (3, 2)), ((3, 2), (2, 2)), ((1, 3), (2, 3)), ((2, 3), (1, 3)), ((0, 0), (0, 1)), ((0, 1), (0, 0)), ((2, 3), (3, 3)), ((3, 3), (2, 3)), ((3, 0), (3, 1)), ((3, 1), (3, 0))]",2,4,3.3496
MP02_1,2,2,"(3, 2)","(0, 1)",17,2,5,"[((1, 0), (1, 1)), ((1, 1), (1, 0)), ((2, 3), (3, 3)), ((3, 3), (2, 3)), ((0, 1), (0, 2)), ((0, 2), (0, 1)), ((0, 2), (0, 3)), ((0, 3), (0, 2)), ((2, 2), (3, 2)), ((3, 2), (2, 2)), ((2, 1), (2, 2)), ((2, 2), (2, 1)), ((1, 2), (1, 3)), ((1, 3), (1, 2)), ((2, 0), (3, 0)), ((3, 0), (2, 0)), ((2, 2), (2, 3)), ((2, 3), (2, 2)), ((1, 1), (2, 1)), ((2, 1), (1, 1)), ((1, 3), (2, 3)), ((2, 3), (1, 3)), ((1, 2), (2, 2)), ((2, 2), (1, 2)), ((0, 0), (1, 0)), ((1, 0), (0, 0)), ((1, 0), (2, 0)), ((2, 0), (1, 0)), ((3, 0), (3, 1)), ((3, 1), (3, 0)), ((0, 3), (1, 3)), ((1, 3), (0, 3)), ((0, 0), (0, 1)), ((0, 1), (0, 0))]",5,3,2.2661
MP02_1,2,3,"(3, 1)","(0, 2)",17,2,5,"[((1, 1), (2, 1)), ((2, 1), (1, 1)), ((1, 2), (2, 2)), ((2, 2), (1, 2)), ((0, 2), (1, 2)), ((1, 2), (0, 2)), ((1, 0), (2, 0)), ((2, 0), (1, 0)), ((1, 0), (1, 1)), ((1, 1), (1, 0)), ((1, 3), (2, 3)), ((2, 3), (1, 3)), ((0, 3), (1, 3)), ((1, 3), (0, 3)), ((0, 1), (1, 1)), ((1, 1), (0, 1)), ((2, 1), (2, 2)), ((2, 2), (2, 1)), ((3, 2), (3, 3)), ((3, 3), (3, 2)), ((0, 1), (0, 2)), ((0, 2), (0, 1)), ((2, 0), (3, 0)), ((3, 0), (2, 0)), ((3, 0), (3, 1)), ((3, 1), (3, 0)), ((2, 3), (3, 3)), ((3, 3), (2, 3)), ((1, 2), (1, 3)), ((1, 3), (1, 2)), ((0, 0), (0, 1)), ((0, 1), (0, 0)), ((0, 2), (0, 3)), ((0, 3), (0, 2))]",3,4,1.4378
MP02_1,2,4,"(2, 0)","(1, 3)",18,3,5,"[((0, 0), (0, 1)), ((0, 1), (0, 0)), ((2, 3), (3, 3)), ((3, 3), (2, 3)), ((1, 0), (2, 0)), ((2, 0), (1, 0)), ((0, 2), (1, 2)), ((1, 2), (0, 2)), ((1, 1), (1, 2)), ((1, 2), (1, 1)), ((2, 1), (2, 2)), ((2, 2), (2, 1)), ((0, 2), (0, 3)), ((0, 3), (0, 2)), ((0, 3), (1, 3)), ((1, 3), (0, 3)), ((3, 1), (3, 2)), ((3, 2), (3, 1)), ((1, 2), (1, 3)), ((1, 3), (1, 2)), ((2, 0), (3, 0)), ((3, 0), (2, 0)), ((0, 0), (1, 0)), ((1, 0), (0, 0)), ((3, 0), (3, 1)), ((3, 1), (3, 0)), ((1, 3), (2, 3)), ((2, 3), (1, 3)), ((2, 2), (3, 2)), ((3, 2), (2, 2)), ((2, 0), (2, 1)), ((2, 1), (2, 0)), ((3, 2), (3, 3)), ((3, 3), (3, 2)), ((1, 1), (2, 1)), ((2, 1), (1, 1))]",6,5,1.0329
MP02_1,2,5,"(2, 0)","(1, 3)",16,1,5,"[((0, 2), (0, 3)), ((0, 3), (0, 2)), ((3, 0), (3, 1)), ((3, 1), (3, 0)), ((1, 2), (2, 2)), ((2, 2), (1, 2)), ((2, 1), (3, 1)), ((3, 1), (2, 1)), ((2, 0), (3, 0)), ((3, 0), (2, 0)), ((0, 0), (1, 0)), ((1, 0), (0, 0)), ((1, 1), (1, 2)), ((1, 2), (1, 1)), ((3, 2), (3, 3)), ((3, 3), (3, 2)), ((3, 1), (3, 2)), ((3, 2), (3, 1)), ((0, 2), (1, 2)), ((1, 2), (0, 2)), ((1, 2), (1, 3)), ((1, 3), (1, 2)), ((0, 0), (0, 1)), ((0, 1), (0, 0)), ((2, 2), (2, 3)), ((2, 3), (2, 2)), ((1, 0), (1, 1)), ((1, 1), (1, 0)), ((0, 1), (1, 1)), ((1, 1), (0, 1)), ((2, 2), (3, 2)), ((3, 2), (2, 2))]",1,1,2.8375
MP02_1,2,6,"(2, 3)","(1, 0)",16,1,5,"[((2, 1), (2, 2)), ((2, 2), (2, 1)), ((0, 2), (1, 2)), ((1, 2), (0, 2)), ((2, 0), (2, 1)), ((2, 1), (2, 0)), ((2, 1), (3, 1)), ((3, 1), (2, 1)), ((3, 0), (3, 1)), ((3, 1), (3, 0)), ((0, 1), (0, 2)), ((0, 2), (0, 1)), ((2, 2), (2, 3)), ((2, 3), (2, 2)), ((1, 1), (2, 1)), ((2, 1), (1, 1)), ((0, 0), (0, 1)), ((0, 1), (0, 0)), ((2, 3), (3, 3)), ((3, 3), (2, 3)), ((0, 2), (0, 3)), ((0, 3), (0, 2)), ((2, 2), (3, 2)), ((3, 2), (2, 2)), ((1, 0), (1, 1)), ((1, 1), (1, 0)), ((0, 1), (1, 1)), ((1, 1), (0, 1)), ((3, 2), (3, 3)), ((3, 3), (3, 2)), ((1, 3), (2, 3)), ((2, 3), (1, 3))]",2,2,2.417
MP02_1,2,7,"(1, 0)","(2, 3)",17,2,5,"[((3, 2), (3, 3)), ((3, 3), (3, 2)), ((1, 2), (1, 3)), ((1, 3), (1, 2)), ((3, 1), (3, 2)), ((3, 2), (3, 1)), ((2, 2), (2, 3)), ((2, 3), (2, 2)), ((3, 0), (3, 1)), ((3, 1), (3, 0)), ((0, 0), (0, 1)), ((0, 1), (0, 0)), ((1, 0), (1, 1)), ((1, 1), (1, 0)), ((2, 0), (2, 1)), ((2, 1), (2, 0)), ((0, 3), (1, 3)), ((1, 3), (0, 3)), ((1, 1), (2, 1)), ((2, 1), (1, 1)), ((1, 1), (1, 2)), ((1, 2), (1, 1)), ((0, 0), (1, 0)), ((1, 0), (0, 0)), ((2, 0), (3, 0)), ((3, 0), (2, 0)), ((2, 2), (3, 2)), ((3, 2), (2, 2)), ((0, 2), (1, 2)), ((1, 2), (0, 2)), ((2, 1), (3, 1)), ((3, 1), (2, 1)), ((0, 2), (0, 3)), ((0, 3), (0, 2))]",2,2,2.1201
MP02_1,2,8,"(0, 2)","(3, 1)",17,2,5,"[((1, 0), (1, 1)), ((1, 1), (1, 0)), ((0, 2), (1, 2)), ((1, 2), (0, 2)), ((1, 1), (2, 1)), ((2, 1), (1, 1)), ((0, 1), (0, 2)), ((0, 2), (0, 1)), ((0, 3), (1, 3)), ((1, 3), (0, 3)), ((2, 2), (2, 3)), ((2, 3), (2, 2)), ((2, 1), (2, 2)), ((2, 2), (2, 1)), ((1, 3), (2, 3)), ((2, 3), (1, 3)), ((0, 0), (0, 1)), ((0, 1), (0, 0)), ((2, 1), (3, 1)), ((3, 1), (2, 1)), ((0, 1), (1, 1)), ((1, 1), (0, 1)), ((0, 2), (0, 3)), ((0, 3), (0, 2)), ((3, 2), (3, 3)), ((3, 3), (3, 2)), ((2, 0), (2, 1)), ((2, 1), (2, 0)), ((3, 0), (3, 1)), ((3, 1), (3, 0)), ((1, 1), (1, 2)), ((1, 2), (1, 1)), ((3, 1), (3, 2)), ((3, 2), (3, 1))]",5,2,3.7213
MP02_1,2,9,"(0, 2)","(3, 1)",17,2,5,"[((2, 2), (2, 3)), ((2, 3), (2, 2)), ((2, 1), (2, 2)), ((2, 2), (2, 1)), ((3, 2), (3, 3)), ((3, 3), (3, 2)), ((0, 2), (0, 3)), ((0, 3), (0, 2)), ((0, 2), (1, 2)), ((1, 2), (0, 2)), ((1, 0), (2, 0)), ((2, 0), (1, 0)), ((0, 1), (0, 2)), ((0, 2), (0, 1)), ((0, 1), (1, 1)), ((1, 1), (0, 1)), ((1, 3), (2, 3)), ((2, 3), (1, 3)), ((2, 0), (2, 1)), ((2, 1), (2, 0)), ((3, 1), (3, 2)), ((3, 2), (3, 1)), ((0, 0), (0, 1)), ((0, 1), (0, 0)), ((0, 0), (1, 0)), ((1, 0), (0, 0)), ((1, 0), (1, 1)), ((1, 1), (1, 0)), ((2, 1), (3, 1)), ((3, 1), (2, 1)), ((2, 0), (3, 0)), ((3, 0), (2, 0)), ((0, 3), (1, 3)), ((1, 3), (0, 3))]",3,2,2.9226
MP02_1,2,10,"(3, 1)","(0, 2)",16,1,5,"[((1, 0), (1, 1)), ((1, 1), (1, 0)), ((3, 0), (3, 1)), ((3, 1), (3, 0)), ((3, 1), (3, 2)), ((3, 2), (3, 1)), ((2, 1), (3, 1)), ((3, 1), (2, 1)), ((0, 3), (1, 3)), ((1, 3), (0, 3)), ((1, 1), (2, 1)), ((2, 1), (1, 1)), ((0, 1), (1, 1)), ((1, 1), (0, 1)), ((0, 2), (1, 2)), ((1, 2), (0, 2)), ((1, 1), (1, 2)), ((1, 2), (1, 1)), ((2, 3), (3, 3)), ((3, 3), (2, 3)), ((0, 0), (1, 0)), ((1, 0), (0, 0)), ((1, 0), (2, 0)), ((2, 0), (1, 0)), ((2, 2), (2, 3)), ((2, 3), (2, 2)), ((1, 2), (1, 3)), ((1, 3), (1, 2)), ((0, 0), (0, 1)), ((0, 1), (0, 0)), ((1, 3), (2, 3)), ((2, 3), (1, 3))]",3,2,3.2544
MP02_1,2,11,"(1, 0)","(2, 3)",18,3,5,"[((0, 0), (0, 1)), ((0, 1), (0, 0)), ((2, 1), (2, 2)), ((2, 2), (2, 1)), ((0, 2), (1, 2)), ((1, 2), (0, 2)), ((3, 1), (3, 2)), ((3, 2), (3, 1)), ((2, 2), (3, 2)), ((3, 2), (2, 2)), ((2, 0), (3, 0)), ((3, 0), (2, 0)), ((0, 3), (1, 3)), ((1, 3), (0, 3)), ((0, 1), (0, 2)), ((0, 2), (0, 1)), ((1, 3), (2, 3)), ((2, 3), (1, 3)), ((1, 1), (1, 2)), ((1, 2), (1, 1)), ((2, 3), (3, 3)), ((3, 3), (2, 3)), ((1, 0), (1, 1)), ((1, 1), (1, 0)), ((3, 2), (3, 3)), ((3, 3), (3, 2)), ((0, 0), (1, 0)), ((1, 0), (0, 0)), ((1, 1), (2, 1)), ((2, 1), (1, 1)), ((1, 2), (1, 3)), ((1, 3), (1, 2)), ((0, 2), (0, 3)), ((0, 3), (0, 2)), ((3, 0), (3, 1)), ((3, 1), (3, 0))]",7,4,2.5226
MP02_1,2,12,"(1, 3)","(2, 0)",15,0,5,"[((2, 1), (3, 1)), ((3, 1), (2, 1)), ((1, 0), (1, 1)), ((1, 1), (1, 0)), ((2, 2), (3, 2)), ((3, 2), (2, 2)), ((1, 0), (2, 0)), ((2, 0), (1, 0)), ((0, 1), (0, 2)), ((0, 2), (0, 1)), ((2, 0), (2, 1)), ((2, 1), (2, 0)), ((2, 0), (3, 0)), ((3, 0), (2, 0)), ((2, 3), (3, 3)), ((3, 3), (2, 3)), ((2, 2), (2, 3)), ((2, 3), (2, 2)), ((0, 0), (1, 0)), ((1, 0), (0, 0)), ((0, 0), (0, 1)), ((0, 1), (0, 0)), ((0, 2), (0, 3)), ((0, 3), (0, 2)), ((1, 3), (2, 3)), ((2, 3), (1, 3)), ((0, 2), (1, 2)), ((1, 2), (0, 2)), ((2, 1), (2, 2)), ((2, 2), (2, 1))]",1,1,1.8012
MP02_1,2,13,"(3, 2)","(0, 1)",17,2,5,"[((2, 0), (3, 0)), ((3, 0), (2, 0)), ((2, 2), (3, 2)), ((3, 2), (2, 2)), ((2, 1), (3, 1)), ((3, 1), (2, 1)), ((1, 2), (2, 2)), ((2, 2), (1, 2)), ((0, 3), (1, 3)), ((1, 3), (0, 3)), ((3, 2), (3, 3)), ((3, 3), (3, 2)), ((1, 0), (1, 1)), ((1, 1), (1, 0)), ((1, 0), (2, 0)), ((2, 0), (1, 0)), ((0, 2), (0, 3)), ((0, 3), (0, 2)), ((2, 2), (2, 3)), ((2, 3), (2, 2)), ((3, 1), (3, 2)), ((3, 2), (3, 1)), ((0, 1), (0, 2)), ((0, 2), (0, 1)), ((3, 0), (3, 1)), ((3, 1), (3, 0)), ((2, 1), (2, 2)), ((2, 2), (2, 1)), ((2, 0), (2, 1)), ((2, 1), (2, 0)), ((0, 0), (0, 1)), ((0, 1), (0, 0)), ((1, 3), (2, 3)), ((2, 3), (1, 3))]",3,3,2.3212
MP02_1,2,14,"(3, 1)","(0, 2)",18,3,5,"[((0, 2), (0, 3)), ((0, 3), (0, 2)), ((1, 0), (1, 1)), ((1, 1), (1, 0)), ((1, 3), (2, 3)), ((2, 3), (1, 3)), ((0, 1), (1, 1)), ((1, 1), (0, 1)), ((1, 1), (2, 1)), ((2, 1), (1, 1)), ((0, 3), (1, 3)), ((1, 3), (0, 3)), ((0, 0), (0, 1)), ((0, 1), (0, 0)), ((1, 2), (1, 3)), ((1, 3), (1, 2)), ((2, 0), (2, 1)), ((2, 1), (2, 0)), ((3, 2), (3, 3)), ((3, 3), (3, 2)), ((2, 1), (2, 2)), ((2, 2), (2, 1)), ((1, 2), (2, 2)), ((2, 2), (1, 2)), ((2, 3), (3, 3)), ((3, 3), (2, 3)), ((0, 2), (1, 2)), ((1, 2), (0, 2)), ((2, 1), (3, 1)), ((3, 1), (2, 1)), ((3, 0), (3, 1)), ((3, 1), (3, 0)), ((2, 2), (3, 2)), ((3, 2), (2, 2)), ((0, 1), (0, 2)), ((0, 2), (0, 1))]",5,3,1.983
MP02_1,2,15,"(0, 2)","(3, 1)",17,2,5,"[((1, 2), (2, 2)), ((2, 2), (1, 2)), ((2, 1), (2, 2)), ((2, 2), (2, 1)), ((1, 0), (1, 1)), ((1, 1), (1, 0)), ((2, 0), (3, 0)), ((3, 0), (2, 0)), ((2, 2), (2, 3)), ((2, 3), (2, 2)), ((0, 2), (1, 2)), ((1, 2), (0, 2)), ((0, 3), (1, 3)), ((1, 3), (0, 3)), ((3, 0), (3, 1)), ((3, 1), (3, 0)), ((0, 0), (1, 0)), ((1, 0), (0, 0)), ((0, 1), (0, 2)), ((0, 2), (0, 1)), ((2, 2), (3, 2)), ((3, 2), (2, 2)), ((1, 1), (2, 1)), ((2, 1), (1, 1)), ((1, 3), (2, 3)), ((2, 3), (1, 3)), ((3, 2), (3, 3)), ((3, 3), (3, 2)), ((2, 1), (3, 1)), ((3, 1), (2, 1)), ((1, 2), (1, 3)), ((1, 3), (1, 2)), ((0, 0), (0, 1)), ((0, 1), (0, 0))]",3,3,3.0004
MP02_1,2,16,"(0, 1)","(3, 2)",16,1,5,"[((0, 2), (1, 2)), ((1, 2), (0, 2)), ((2, 0), (3, 0)), ((3, 0), (2, 0)), ((0, 1), (1, 1)), ((1, 1), (0, 1)), ((2, 2), (2, 3)), ((2, 3), (2, 2)), ((2, 0), (2, 1)), ((2, 1), (2, 0)), ((2, 2), (3, 2)), ((3, 2), (2, 2)), ((2, 3), (3, 3)), ((3, 3), (2, 3)), ((2, 1), (3, 1)), ((3, 1), (2, 1)), ((3, 0), (3, 1)), ((3, 1), (3, 0)), ((1, 2), (2, 2)), ((2, 2), (1, 2)), ((0, 1), (0, 2)), ((0, 2), (0, 1)), ((0, 3), (1, 3)), ((1, 3), (0, 3)), ((1, 1), (2, 1)), ((2, 1), (1, 1)), ((1, 3), (2, 3)), ((2, 3), (1, 3)), ((0, 0), (0, 1)), ((0, 1), (0, 0)), ((1, 0), (2, 0)), ((2, 0), (1, 0))]",1,1,1.2415
MP02_1,2,17,"(3, 2)","(0, 1)",15,0,5,"[((1, 0), (1, 1)), ((1, 1), (1, 0)), ((0, 2), (1, 2)), ((1, 2), (0, 2)), ((1, 1), (2, 1)), ((2, 1), (1, 1)), ((0, 1), (1, 1)), ((1, 1), (0, 1)), ((3, 0), (3, 1)), ((3, 1), (3, 0)), ((2, 2), (2, 3)), ((2, 3), (2, 2)), ((0, 2), (0, 3)), ((0, 3), (0, 2)), ((0, 0), (0, 1)), ((0, 1), (0, 0)), ((1, 2), (1, 3)), ((1, 3), (1, 2)), ((2, 2), (3, 2)), ((3, 2), (2, 2)), ((3, 2), (3, 3)), ((3, 3), (3, 2)), ((2, 1), (2, 2)), ((2, 2), (2, 1)), ((1, 3), (2, 3)), ((2, 3), (1, 3)), ((1, 0), (2, 0)), ((2, 0), (1, 0)), ((2, 1), (3, 1)), ((3, 1), (2, 1))]",1,1,1.6151
MP02_1,2,18,"(0, 1)","(3, 2)",15,0,5,"[((1, 2), (2, 2)), ((2, 2), (1, 2)), ((2, 1), (2, 2)), ((2, 2), (2, 1)), ((2, 0), (2, 1)), ((2, 1), (2, 0)), ((0, 3), (1, 3)), ((1, 3), (0, 3)), ((0, 2), (1, 2)), ((1, 2), (0, 2)), ((1, 0), (1, 1)), ((1, 1), (1, 0)), ((0, 2), (0, 3)), ((0, 3), (0, 2)), ((3, 0), (3, 1)), ((3, 1), (3, 0)), ((3, 1), (3, 2)), ((3, 2), (3, 1)), ((0, 0), (1, 0)), ((1, 0), (0, 0)), ((2, 1), (3, 1)), ((3, 1), (2, 1)), ((2, 3), (3, 3)), ((3, 3), (2, 3)), ((1, 1), (1, 2)), ((1, 2), (1, 1)), ((0, 1), (1, 1)), ((1, 1), (0, 1)), ((1, 3), (2, 3)), ((2, 3), (1, 3))]",1,1,1.9659
MP02_1,2,19,"(1, 0)","(2, 3)",18,3,5,"[((2, 0), (2, 1)), ((2, 1), (2, 0)), ((0, 3), (1, 3)), ((1, 3), (0, 3)), ((3, 0), (3, 1)), ((3, 1), (3, 0)), ((2, 1), (2, 2)), ((2, 2), (2, 1)), ((2, 3), (3, 3)), ((3, 3), (2, 3)), ((0, 0), (1, 0)), ((1, 0), (0, 0)), ((1, 3), (2, 3)), ((2, 3), (1, 3)), ((0, 1), (1, 1)), ((1, 1), (0, 1)), ((1, 0), (2, 0)), ((2, 0), (1, 0)), ((3, 2), (3, 3)), ((3, 3), (3, 2)), ((1, 1), (1, 2)), ((1, 2), (1, 1)), ((0, 2), (0, 3)), ((0, 3), (0, 2)), ((2, 0), (3, 0)), ((3, 0), (2, 0)), ((3, 1), (3, 2)), ((3, 2), (3, 1)), ((1, 1), (2, 1)), ((2, 1), (1, 1)), ((1, 0), (1, 1)), ((1, 1), (1, 0)), ((2, 2), (3, 2)), ((3, 2), (2, 2)), ((0, 1), (0, 2)), ((0, 2), (0, 1))]",7,3,1.5017
MP02_1,2,20,"(2, 0)","(1, 3)",15,0,5,"[((2, 2), (3, 2)), ((3, 2), (2, 2)), ((0, 1), (1, 1)), ((1, 1), (0, 1)), ((0, 0), (0, 1)), ((0, 1), (0, 0)), ((1, 2), (2, 2)), ((2, 2), (1, 2)), ((2, 1), (2, 2)), ((2, 2), (2, 1)), ((2, 0), (2, 1)), ((2, 1), (2, 0)), ((0, 0), (1, 0)), ((1, 0), (0, 0)), ((3, 2), (3, 3)), ((3, 3), (3, 2)), ((1, 3), (2, 3)), ((2, 3), (1, 3)), ((0, 1), (0, 2)), ((0, 2), (0, 1)), ((2, 0), (3, 0)), ((3, 0), (2, 0)), ((0, 2), (0, 3)), ((0, 3), (0, 2)), ((1, 1), (1, 2)), ((1, 2), (1, 1)), ((2, 2), (2, 3)), ((2, 3), (2, 2)), ((3, 1), (3, 2)), ((3, 2), (3, 1))]",1,1,1.4644
MP02_1,2,21,"(2, 0)","(1, 3)",16,1,5,"[((3, 0), (3, 1)), ((3, 1), (3, 0)), ((0, 2), (0, 3)), ((0, 3), (0, 2)), ((2, 0), (3, 0)), ((3, 0), (2, 0)), ((1, 2), (2, 2)), ((2, 2), (1, 2)), ((0, 1), (1, 1)), ((1, 1), (0, 1)), ((2, 1), (2, 2)), ((2, 2), (2, 1)), ((0, 0), (0, 1)), ((0, 1), (0, 0)), ((1, 2), (1, 3)), ((1, 3), (1, 2)), ((2, 1), (3, 1)), ((3, 1), (2, 1)), ((1, 3), (2, 3)), ((2, 3), (1, 3)), ((1, 0), (2, 0)), ((2, 0), (1, 0)), ((2, 3), (3, 3)), ((3, 3), (2, 3)), ((1, 0), (1, 1)), ((1, 1), (1, 0)), ((3, 2), (3, 3)), ((3, 3), (3, 2)), ((0, 2), (1, 2)), ((1, 2), (0, 2)), ((0, 0), (1, 0)), ((1, 0), (0, 0))]",1,1,1.2365
MP02_1,2,22,"(2, 0)","(1, 3)",17,2,5,"[((1, 1), (2, 1)), ((2, 1), (1, 1)), ((1, 2), (1, 3)), ((1, 3), (1, 2)), ((0, 1), (0, 2)), ((0, 2), (0, 1)), ((2, 3), (3, 3)), ((3, 3), (2, 3)), ((1, 3), (2, 3)), ((2, 3), (1, 3)), ((0, 0), (0, 1)), ((0, 1), (0, 0)), ((3, 0), (3, 1)), ((3, 1), (3, 0)), ((2, 2), (3, 2)), ((3, 2), (2, 2)), ((3, 1), (3, 2)), ((3, 2), (3, 1)), ((0, 2), (0, 3)), ((0, 3), (0, 2)), ((1, 0), (2, 0)), ((2, 0), (1, 0)), ((1, 1), (1, 2)), ((1, 2), (1, 1)), ((0, 3), (1, 3)), ((1, 3), (0, 3)), ((2, 0), (2, 1)), ((2, 1), (2, 0)), ((1, 0), (1, 1)), ((1, 1), (1, 0)), ((2, 1), (2, 2)), ((2, 2), (2, 1)), ((2, 2), (2, 3)), ((2, 3), (2, 2))]",4,3,3.3008
MP02_1,2,23,"(0, 2)","(3, 1)",18,3,5,"[((2, 0), (2, 1)), ((2, 1), (2, 0)), ((1, 2), (2, 2)), ((2, 2), (1, 2)), ((1, 3), (2, 3)), ((2, 3), (1, 3)), ((2, 3), (3, 3)), ((3, 3), (2, 3)), ((1, 1), (1, 2)), ((1, 2), (1, 1)), ((1, 1), (2, 1)), ((2, 1), (1, 1)), ((0, 1), (1, 1)), ((1, 1), (0, 1)), ((1, 2), (1, 3)), ((1, 3), (1, 2)), ((0, 3), (1, 3)), ((1, 3), (0, 3)), ((0, 0), (0, 1)), ((0, 1), (0, 0)), ((2, 1), (2, 2)), ((2, 2), (2, 1)), ((1, 0), (1, 1)), ((1, 1), (1, 0)), ((0, 2), (0, 3)), ((0, 3), (0, 2)), ((3, 1), (3, 2)), ((3, 2), (3, 1)), ((0, 1), (0, 2)), ((0, 2), (0, 1)), ((2, 0), (3, 0)), ((3, 0), (2, 0)), ((2, 2), (3, 2)), ((3, 2), (2, 2)), ((3, 2), (3, 3)), ((3, 3), (3, 2))]",7,3,2.1791
MP02_1,2,24,"(0, 1)","(3, 2)",17,2,5,"[((1, 1), (1, 2)), ((1, 2), (1, 1)), ((0, 0), (1, 0)), ((1, 0), (0, 0)), ((3, 0), (3, 1)), ((3, 1), (3, 0)), ((1, 2), (1, 3)), ((1, 3), (1, 2)), ((2, 3), (3, 3)), ((3, 3), (2, 3)), ((2, 2), (3, 2)), ((3, 2), (2, 2)), ((1, 3), (2, 3)), ((2, 3), (1, 3)), ((0, 2), (0, 3)), ((0, 3), (0, 2)), ((2, 0), (3, 0)), ((3, 0), (2, 0)), ((1, 1), (2, 1)), ((2, 1), (1, 1)), ((2, 1), (3, 1)), ((3, 1), (2, 1)), ((2, 2), (2, 3)), ((2, 3), (2, 2)), ((1, 2), (2, 2)), ((2, 2), (1, 2)), ((0, 2), (1, 2)), ((1, 2), (0, 2)), ((0, 3), (1, 3)), ((1, 3), (0, 3)), ((1, 0), (2, 0)), ((2, 0), (1, 0)), ((0, 1), (1, 1)), ((1, 1), (0, 1))]",5,2,2.3227
MP02_1,2,25,"(0, 2)","(3, 1)",16,1,5,"[((0, 2), (1, 2)), ((1, 2), (0, 2)), ((2, 0), (2, 1)), ((2, 1), (2, 0)), ((2, 2), (3, 2)), ((3, 2), (2, 2)), ((2, 1), (3, 1)), ((3, 1), (2, 1)), ((1, 3), (2, 3)), ((2, 3), (1, 3)), ((3, 0), (3, 1)), ((3, 1), (3, 0)), ((1, 1), (2, 1)), ((2, 1), (1, 1)), ((1, 2), (1, 3)), ((1, 3), (1, 2)), ((2, 2), (2, 3)), ((2, 3), (2, 2)), ((2, 0), (3, 0)), ((3, 0), (2, 0)), ((3, 2), (3, 3)), ((3, 3), (3, 2)), ((0, 3), (1, 3)), ((1, 3), (0, 3)), ((1, 0), (1, 1)), ((1, 1), (1, 0)), ((0, 0), (0, 1)), ((0, 1), (0, 0)), ((2, 1), (2, 2)), ((2, 2), (2, 1)), ((0, 1), (0, 2)), ((0, 2), (0, 1))]",2,2,1.1002
MP02_1,2,26,"(3, 2)","(0, 1)",17,2,5,"[((1, 2), (1, 3)), ((1, 3), (1, 2)), ((3, 0), (3, 1)), ((3, 1), (3, 0)), ((1, 0), (2, 0)), ((2, 0), (1, 0)), ((2, 3), (3, 3)), ((3, 3), (2, 3)), ((1, 0), (1, 1)), ((1, 1), (1, 0)), ((0, 0), (1, 0)), ((1, 0), (0, 0)), ((0, 1), (1, 1)), ((1, 1), (0, 1)), ((2, 2), (2, 3)), ((2, 3), (2, 2)), ((0, 2), (0, 3)), ((0, 3), (0, 2)), ((2, 1), (3, 1)), ((3, 1), (2, 1)), ((2, 0), (2, 1)), ((2, 1), (2, 0)), ((2, 1), (2, 2)), ((2, 2), (2, 1)), ((1, 2), (2, 2)), ((2, 2), (1, 2)), ((0, 3), (1, 3)), ((1, 3), (0, 3)), ((3, 1), (3, 2)), ((3, 2), (3, 1)), ((1, 1), (2, 1)), ((2, 1), (1, 1)), ((0, 1), (0, 2)), ((0, 2), (0, 1))]",5,3,0.9883
MP02_1,2,27,"(3, 1)","(0, 2)",17,2,5,"[((1, 3), (2, 3)), ((2, 3), (1, 3)), ((1, 2), (1, 3)), ((1, 3), (1, 2)), ((2, 1), (3, 1)), ((3, 1), (2, 1)), ((0, 0), (0, 1)), ((0, 1), (0, 0)), ((3, 0), (3, 1)), ((3, 1), (3, 0)), ((1, 0), (1, 1)), ((1, 1), (1, 0)), ((0, 1), (1, 1)), ((1, 1), (0, 1)), ((0, 2), (1, 2)), ((1, 2), (0, 2)), ((1, 0), (2, 0)), ((2, 0), (1, 0)), ((2, 3), (3, 3)), ((3, 3), (2, 3)), ((2, 0), (3, 0)), ((3, 0), (2, 0)), ((2, 2), (3, 2)), ((3, 2), (2, 2)), ((0, 2), (0, 3)), ((0, 3), (0, 2)), ((2, 0), (2, 1)), ((2, 1), (2, 0)), ((1, 1), (2, 1)), ((2, 1), (1, 1)), ((2, 2), (2, 3)), ((2, 3), (2, 2)), ((3, 1), (3, 2)), ((3, 2), (3, 1))]",5,1,1.0688
MP02_1,2,28,"(2, 0)","(1, 3)",18,3,5,"[((3, 1), (3, 2)), ((3, 2), (3, 1)), ((0, 1), (1, 1)), ((1, 1), (0, 1)), ((1, 1), (1, 2)), ((1, 2), (1, 1)), ((1, 0), (2, 0)), ((2, 0), (1, 0)), ((0, 1), (0, 2)), ((0, 2), (0, 1)), ((2, 1), (2, 2)), ((2, 2), (2, 1)), ((3, 2), (3, 3)), ((3, 3), (3, 2)), ((0, 2), (1, 2)), ((1, 2), (0, 2)), ((2, 0), (3, 0)), ((3, 0), (2, 0)), ((0, 2), (0, 3)), ((0, 3), (0, 2)), ((2, 2), (3, 2)), ((3, 2), (2, 2)), ((0, 3), (1, 3)), ((1, 3), (0, 3)), ((0, 0), (0, 1)), ((0, 1), (0, 0)), ((2, 0), (2, 1)), ((2, 1), (2, 0)), ((1, 3), (2, 3)), ((2, 3), (1, 3)), ((0, 0), (1, 0)), ((1, 0), (0, 0)), ((1, 2), (1, 3)), ((1, 3), (1, 2)), ((2, 2), (2, 3)), ((2, 3), (2, 2))]",5,3,2.0325
MP02_1,2,29,"(2, 3)","(1, 0)",18,3,5,"[((0, 0), (0, 1)), ((0, 1), (0, 0)), ((2, 2), (2, 3)), ((2, 3), (2, 2)), ((3, 1), (3, 2)), ((3, 2), (3, 1)), ((1, 1), (1, 2)), ((1, 2), (1, 1)), ((2, 1), (3, 1)), ((3, 1), (2, 1)), ((1, 1), (2, 1)), ((2, 1), (1, 1)), ((0, 1), (0, 2)), ((0, 2), (0, 1)), ((3, 0), (3, 1)), ((3, 1), (3, 0)), ((2, 3), (3, 3)), ((3, 3), (2, 3)), ((3, 2), (3, 3)), ((3, 3), (3, 2)), ((2, 2), (3, 2)), ((3, 2), (2, 2)), ((2, 0), (3, 0)), ((3, 0), (2, 0)), ((2, 0), (2, 1)), ((2, 1), (2, 0)), ((0, 2), (0, 3)), ((0, 3), (0, 2)), ((0, 0), (1, 0)), ((1, 0), (0, 0)), ((0, 3), (1, 3)), ((1, 3), (0, 3)), ((1, 2), (1, 3)), ((1, 3), (1, 2)), ((1, 2), (2, 2)), ((2, 2), (1, 2))]",6,4,2.9185
MP02_1,2,30,"(0, 1)","(3, 2)",18,3,5,"[((0, 1), (0, 2)), ((0, 2), (0, 1)), ((3, 2), (3, 3)), ((3, 3), (3, 2)), ((0, 0), (1, 0)), ((1, 0), (0, 0)), ((0, 2), (0, 3)), ((0, 3), (0, 2)), ((2, 3), (3, 3)), ((3, 3), (2, 3)), ((1, 2), (2, 2)), ((2, 2), (1, 2)), ((0, 2), (1, 2)), ((1, 2), (0, 2)), ((1, 2), (1, 3)), ((1, 3), (1, 2)), ((2, 2), (2, 3)), ((2, 3), (2, 2)), ((1, 0), (2, 0)), ((2, 0), (1, 0)), ((2, 1), (3, 1)), ((3, 1), (2, 1)), ((2, 1), (2, 2)), ((2, 2), (2, 1)), ((1, 1), (2, 1)), ((2, 1), (1, 1)), ((1, 0), (1, 1)), ((1, 1), (1, 0)), ((3, 0), (3, 1)), ((3, 1), (3, 0)), ((0, 1), (1, 1)), ((1, 1), (0, 1)), ((3, 1), (3, 2)), ((3, 2), (3, 1)), ((2, 2), (3, 2)), ((3, 2), (2, 2))]",6,3,1.5474
MP02_1,2,31,"(3, 2)","(0, 1)",16,1,5,"[((3, 2), (3, 3)), ((3, 3), (3, 2)), ((1, 0), (2, 0)), ((2, 0), (1, 0)), ((2, 1), (2, 2)), ((2, 2), (2, 1)), ((2, 0), (2, 1)), ((2, 1), (2, 0)), ((0, 1), (1, 1)), ((1, 1), (0, 1)), ((2, 3), (3, 3)), ((3, 3), (2, 3)), ((0, 1), (0, 2)), ((0, 2), (0, 1)), ((0, 0), (0, 1)), ((0, 1), (0, 0)), ((2, 0), (3, 0)), ((3, 0), (2, 0)), ((1, 2), (1, 3)), ((1, 3), (1, 2)), ((0, 2), (1, 2)), ((1, 2), (0, 2)), ((1, 3), (2, 3)), ((2, 3), (1, 3)), ((0, 3), (1, 3)), ((1, 3), (0, 3)), ((0, 0), (1, 0)), ((1, 0), (0, 0)), ((1, 1), (2, 1)), ((2, 1), (1, 1)), ((2, 1), (3, 1)), ((3, 1), (2, 1))]",1,5,2.921
MP02_1,2,32,"(1, 0)","(2, 3)",17,2,5,"[((3, 1), (3, 2)), ((3, 2), (3, 1)), ((0, 0), (1, 0)), ((1, 0), (0, 0)), ((2, 0), (3, 0)), ((3, 0), (2, 0)), ((3, 2), (3, 3)), ((3, 3), (3, 2)), ((0, 1), (0, 2)), ((0, 2), (0, 1)), ((1, 1), (1, 2)), ((1, 2), (1, 1)), ((0, 2), (0, 3)), ((0, 3), (0, 2)), ((0, 0), (0, 1)), ((0, 1), (0, 0)), ((1, 0), (1, 1)), ((1, 1), (1, 0)), ((2, 0), (2, 1)), ((2, 1), (2, 0)), ((2, 3), (3, 3)), ((3, 3), (2, 3)), ((3, 0), (3, 1)), ((3, 1), (3, 0)), ((2, 2), (3, 2)), ((3, 2), (2, 2)), ((1, 2), (1, 3)), ((1, 3), (1, 2)), ((2, 1), (2, 2)), ((2, 2), (2, 1)), ((1, 3), (2, 3)), ((2, 3), (1, 3)), ((1, 2), (2, 2)), ((2, 2), (1, 2))]",3,3,2.6505
MP02_1,2,33,"(3, 2)","(0, 1)",19,4,5,"[((1, 3), (2, 3)), ((2, 3), (1, 3)), ((1, 2), (2, 2)), ((2, 2), (1, 2)), ((1, 0), (1, 1)), ((1, 1), (1, 0)), ((2, 3), (3, 3)), ((3, 3), (2, 3)), ((0, 2), (1, 2)), ((1, 2), (0, 2)), ((2, 0), (2, 1)), ((2, 1), (2, 0)), ((0, 3), (1, 3)), ((1, 3), (0, 3)), ((2, 1), (3, 1)), ((3, 1), (2, 1)), ((0, 1), (1, 1)), ((1, 1), (0, 1)), ((0, 0), (1, 0)), ((1, 0), (0, 0)), ((2, 2), (2, 3)), ((2, 3), (2, 2)), ((1, 0), (2, 0)), ((2, 0), (1, 0)), ((0, 2), (0, 3)), ((0, 3), (0, 2)), ((2, 2), (3, 2)), ((3, 2), (2, 2)), ((1, 1), (1, 2)), ((1, 2), (1, 1)), ((3, 0), (3, 1)), ((3, 1), (3, 0)), ((1, 2), (1, 3)), ((1, 3), (1, 2)), ((3, 1), (3, 2)), ((3, 2), (3, 1)), ((2, 0), (3, 0)), ((3, 0), (2, 0))]",7,3,3.7366
MP02_1,2,34,"(2, 0)","(1, 3)",17,2,5,"[((3, 1), (3, 2)), ((3, 2), (3, 1)), ((2, 1), (2, 2)), ((2, 2), (2, 1)), ((0, 2), (1, 2)), ((1, 2), (0, 2)), ((2, 0), (2, 1)), ((2, 1), (2, 0)), ((0, 1), (1, 1)), ((1, 1), (0, 1)), ((2, 2), (2, 3)), ((2, 3), (2, 2)), ((0, 0), (1, 0)), ((1, 0), (0, 0)), ((3, 0), (3, 1)), ((3, 1), (3, 0)), ((1, 2), (2, 2)), ((2, 2), (1, 2)), ((2, 2), (3, 2)), ((3, 2), (2, 2)), ((0, 1), (0, 2)), ((0, 2), (0, 1)), ((0, 3), (1, 3)), ((1, 3), (0, 3)), ((1, 0), (1, 1)), ((1, 1), (1, 0)), ((3, 2), (3, 3)), ((3, 3), (3, 2)), ((2, 0), (3, 0)), ((3, 0), (2, 0)), ((1, 3), (2, 3)), ((2, 3), (1, 3)), ((1, 1), (2, 1)), ((2, 1), (1, 1))]",5,2,1.766
MP02_1,2,35,"(1, 0)","(2, 3)",17,2,5,"[((1, 2), (2, 2)), ((2, 2), (1, 2)), ((1, 1), (2, 1)), ((2, 1), (1, 1)), ((3, 2), (3, 3)), ((3, 3), (3, 2)), ((3, 1), (3, 2)), ((3, 2), (3, 1)), ((0, 0), (0, 1)), ((0, 1), (0, 0)), ((0, 1), (1, 1)), ((1, 1), (0, 1)), ((0, 0), (1, 0)), ((1, 0), (0, 0)), ((0, 2), (0, 3)), ((0, 3), (0, 2)), ((0, 3), (1, 3)), ((1, 3), (0, 3)), ((2, 0), (3, 0)), ((3, 0), (2, 0)), ((2, 2), (3, 2)), ((3, 2), (2, 2)), ((2, 2), (2, 3)), ((2, 3), (2, 2)), ((2, 1), (3, 1)), ((3, 1), (2, 1)), ((2, 1), (2, 2)), ((2, 2), (2, 1)), ((2, 3), (3, 3)), ((3, 3), (2, 3)), ((2, 0), (2, 1)), ((2, 1), (2, 0)), ((1, 3), (2, 3)), ((2, 3), (1, 3))]",4,5,2.5669
MP02_1,2,36,"(1, 3)","(2, 0)",17,2,5,"[((3, 2), (3, 3)), ((3, 3), (3, 2)), ((2, 0), (3, 0)), ((3, 0), (2, 0)), ((0, 3), (1, 3)), ((1, 3), (0, 3)), ((3, 0), (3, 1)), ((3, 1), (3, 0)), ((0, 2), (1, 2)), ((1, 2), (0, 2)), ((0, 0), (0, 1)), ((0, 1), (0, 0)), ((0, 2), (0, 3)), ((0, 3), (0, 2)), ((2, 2), (2, 3)), ((2, 3), (2, 2)), ((1, 3), (2, 3)), ((2, 3), (1, 3)), ((2, 0), (2, 1)), ((2, 1), (2, 0)), ((1, 2), (2, 2)), ((2, 2), (1, 2)), ((1, 0), (1, 1)), ((1, 1), (1, 0)), ((0, 1), (0, 2)), ((0, 2), (0, 1)), ((1, 0), (2, 0)), ((2, 0), (1, 0)), ((2, 1), (2, 2)), ((2, 2), (2, 1)), ((2, 2), (3, 2)), ((3, 2), (2, 2)), ((1, 1), (1, 2)), ((1, 2), (1, 1))]",4,3,2.4162
MP02_1,2,37,"(3, 1)","(0, 2)",17,2,5,"[((1, 0), (2, 0)), ((2, 0), (1, 0)), ((0, 1), (0, 2)), ((0, 2), (0, 1)), ((2, 1), (2, 2)), ((2, 2), (2, 1)), ((0, 1), (1, 1)), ((1, 1), (0, 1)), ((3, 2), (3, 3)), ((3, 3), (3, 2)), ((2, 3), (3, 3)), ((3, 3), (2, 3)), ((1, 2), (1, 3)), ((1, 3), (1, 2)), ((0, 2), (0, 3)), ((0, 3), (0, 2)), ((1, 0), (1, 1)), ((1, 1), (1, 0)), ((2, 2), (2, 3)), ((2, 3), (2, 2)), ((1, 3), (2, 3)), ((2, 3), (1, 3)), ((2, 0), (3, 0)), ((3, 0), (2, 0)), ((1, 1), (1, 2)), ((1, 2), (1, 1)), ((0, 0), (0, 1)), ((0, 1), (0, 0)), ((3, 0), (3, 1)), ((3, 1), (3, 0)), ((2, 0), (2, 1)), ((2, 1), (2, 0)), ((0, 3), (1, 3)), ((1, 3), (0, 3))]",4,6,2.0846
MP02_1,2,38,"(3, 2)","(0, 1)",18,3,5,"[((1, 1), (1, 2)), ((1, 2), (1, 1)), ((0, 2), (0, 3)), ((0, 3), (0, 2)), ((0, 3), (1, 3)), ((1, 3), (0, 3)), ((2, 2), (2, 3)), ((2, 3), (2, 2)), ((3, 1), (3, 2)), ((3, 2), (3, 1)), ((2, 1), (3, 1)), ((3, 1), (2, 1)), ((1, 3), (2, 3)), ((2, 3), (1, 3)), ((2, 0), (2, 1)), ((2, 1), (2, 0)), ((1, 0), (1, 1)), ((1, 1), (1, 0)), ((1, 1), (2, 1)), ((2, 1), (1, 1)), ((2, 3), (3, 3)), ((3, 3), (2, 3)), ((2, 0), (3, 0)), ((3, 0), (2, 0)), ((3, 2), (3, 3)), ((3, 3), (3, 2)), ((3, 0), (3, 1)), ((3, 1), (3, 0)), ((0, 0), (0, 1)), ((0, 1), (0, 0)), ((0, 1), (0, 2)), ((0, 2), (0, 1)), ((1, 2), (1, 3)), ((1, 3), (1, 2)), ((0, 0), (1, 0)), ((1, 0), (0, 0))]",6,7,2.8668
MP02_1,2,39,"(3, 2)","(0, 1)",17,2,5,"[((1, 3), (2, 3)), ((2, 3), (1, 3)), ((3, 1), (3, 2)), ((3, 2), (3, 1)), ((1, 2), (2, 2)), ((2, 2), (1, 2)), ((2, 1), (3, 1)), ((3, 1), (2, 1)), ((0, 2), (1, 2)), ((1, 2), (0, 2)), ((0, 3), (1, 3)), ((1, 3), (0, 3)), ((0, 0), (0, 1)), ((0, 1), (0, 0)), ((3, 0), (3, 1)), ((3, 1), (3, 0)), ((0, 2), (0, 3)), ((0, 3), (0, 2)), ((3, 2), (3, 3)), ((3, 3), (3, 2)), ((2, 2), (3, 2)), ((3, 2), (2, 2)), ((2, 0), (2, 1)), ((2, 1), (2, 0)), ((1, 0), (1, 1)), ((1, 1), (1, 0)), ((2, 2), (2, 3)), ((2, 3), (2, 2)), ((1, 0), (2, 0)), ((2, 0), (1, 0)), ((0, 0), (1, 0)), ((1, 0), (0, 0)), ((1, 1), (1, 2)), ((1, 2), (1, 1))]",3,4,3.3527
MP02_1,2,40,"(0, 2)","(3, 1)",18,3,5,"[((1, 2), (2, 2)), ((2, 2), (1, 2)), ((1, 1), (2, 1)), ((2, 1), (1, 1)), ((2, 1), (3, 1)), ((3, 1), (2, 1)), ((1, 0), (2, 0)), ((2, 0), (1, 0)), ((2, 0), (2, 1)), ((2, 1), (2, 0)), ((1, 1), (1, 2)), ((1, 2), (1, 1)), ((1, 3), (2, 3)), ((2, 3), (1, 3)), ((2, 0), (3, 0)), ((3, 0), (2, 0)), ((0, 0), (0, 1)), ((0, 1), (0, 0)), ((0, 3), (1, 3)), ((1, 3), (0, 3)), ((0, 1), (1, 1)), ((1, 1), (0, 1)), ((3, 0), (3, 1)), ((3, 1), (3, 0)), ((2, 2), (3, 2)), ((3, 2), (2, 2)), ((1, 2), (1, 3)), ((1, 3), (1, 2)), ((2, 3), (3, 3)), ((3, 3), (2, 3)), ((0, 2), (1, 2)), ((1, 2), (0, 2)), ((0, 1), (0, 2)), ((0, 2), (0, 1)), ((3, 1), (3, 2)), ((3, 2), (3, 1))]",6,3,2.0996
MP02_1,2,41,"(1, 0)","(2, 3)",18,3,5,"[((1, 2), (1, 3)), ((1, 3), (1, 2)), ((3, 1), (3, 2)), ((3, 2), (3, 1)), ((0, 0), (0, 1)), ((0, 1), (0, 0)), ((1, 1), (2, 1)), ((2, 1), (1, 1)), ((0, 2), (0, 3)), ((0, 3), (0, 2)), ((0, 0), (1, 0)), ((1, 0), (0, 0)), ((1, 1), (1, 2)), ((1, 2), (1, 1)), ((0, 1), (0, 2)), ((0, 2), (0, 1)), ((0, 3), (1, 3)), ((1, 3), (0, 3)), ((2, 3), (3, 3)), ((3, 3), (2, 3)), ((1, 0), (1, 1)), ((1, 1), (1, 0)), ((3, 2), (3, 3)), ((3, 3), (3, 2)), ((2, 2), (2, 3)), ((2, 3), (2, 2)), ((2, 0), (3, 0)), ((3, 0), (2, 0)), ((3, 0), (3, 1)), ((3, 1), (3, 0)), ((1, 3), (2, 3)), ((2, 3), (1, 3)), ((2, 1), (2, 2)), ((2, 2), (2, 1)), ((0, 2), (1, 2)), ((1, 2), (0, 2))]",7,5,1.7504
MP02_1,2,42,"(3, 2)","(0, 1)",17,2,5,"[((2, 3), (3, 3)), ((3, 3), (2, 3)), ((0, 2), (0, 3)), ((0, 3), (0, 2)), ((0, 1), (0, 2)), ((0, 2), (0, 1)), ((2, 0), (3, 0)), ((3, 0), (2, 0)), ((1, 2), (1, 3)), ((1, 3), (1, 2)), ((0, 3), (1, 3)), ((1, 3), (0, 3)), ((3, 0), (3, 1)), ((3, 1), (3, 0)), ((0, 1), (1, 1)), ((1, 1), (0, 1)), ((2, 2), (2, 3)), ((2, 3), (2, 2)), ((0, 0), (1, 0)), ((1, 0), (0, 0)), ((1, 0), (1, 1)), ((1, 1), (1, 0)), ((1, 1), (1, 2)), ((1, 2), (1, 1)), ((1, 3), (2, 3)), ((2, 3), (1, 3)), ((2, 1), (3, 1)), ((3, 1), (2, 1)), ((2, 0), (2, 1)), ((2, 1), (2, 0)), ((1, 1), (2, 1)), ((2, 1), (1, 1)), ((3, 1), (3, 2)), ((3, 2), (3, 1))]",4,2,3.4392
MP02_1,2,43,"(1, 3)","(2, 0)",18,3,5,"[((2, 0), (2, 1)), ((2, 1), (2, 0)), ((2, 2), (2, 3)), ((2, 3), (2, 2)), ((0, 1), (0, 2)), ((0, 2), (0, 1)), ((0, 1), (1, 1)), ((1, 1), (0, 1)), ((2, 3), (3, 3)), ((3, 3), (2, 3)), ((0, 2), (0, 3)), ((0, 3), (0, 2)), ((1, 1), (1, 2)), ((1, 2), (1, 1)), ((2, 1), (3, 1)), ((3, 1), (2, 1)), ((1, 0), (2, 0)), ((2, 0), (1, 0)), ((1, 0), (1, 1)), ((1, 1), (1, 0)), ((1, 2), (2, 2)), ((2, 2), (1, 2)), ((3, 1), (3, 2)), ((3, 2), (3, 1)), ((2, 0), (3, 0)), ((3, 0), (2, 0)), ((3, 0), (3, 1)), ((3, 1), (3, 0)), ((3, 2), (3, 3)), ((3, 3), (3, 2)), ((1, 3), (2, 3)), ((2, 3), (1, 3)), ((1, 2), (1, 3)), ((1, 3), (1, 2)), ((0, 0), (0, 1)), ((0, 1), (0, 0))]",6,5,2.4511
MP02_1,2,44,"(3, 2)","(0, 1)",17,2,5,"[((2, 0), (3, 0)), ((3, 0), (2, 0)), ((0, 2), (0, 3)), ((0, 3), (0, 2)), ((2, 1), (2, 2)), ((2, 2), (2, 1)), ((3, 0), (3, 1)), ((3, 1), (3, 0)), ((0, 1), (0, 2)), ((0, 2), (0, 1)), ((0, 2), (1, 2)), ((1, 2), (0, 2)), ((1, 0), (1, 1)), ((1, 1), (1, 0)), ((1, 0), (2, 0)), ((2, 0), (1, 0)), ((0, 0), (1, 0)), ((1, 0), (0, 0)), ((2, 2), (2, 3)), ((2, 3), (2, 2)), ((0, 3), (1, 3)), ((1, 3), (0, 3)), ((1, 3), (2, 3)), ((2, 3), (1, 3)), ((2, 2), (3, 2)), ((3, 2), (2, 2)), ((2, 3), (3, 3)), ((3, 3), (2, 3)), ((1, 1), (2, 1)), ((2, 1), (1, 1)), ((3, 1), (3, 2)), ((3, 2), (3, 1)), ((1, 2), (2, 2)), ((2, 2), (1, 2))]",4,4,2.4841
MP02_1,2,45,"(1, 0)","(2, 3)",17,2,5,"[((0, 0), (0, 1)), ((0, 1), (0, 0)), ((0, 1), (1, 1)), ((1, 1), (0, 1)), ((0, 0), (1, 0)), ((1, 0), (0, 0)), ((2, 2), (2, 3)), ((2, 3), (2, 2)), ((0, 3), (1, 3)), ((1, 3), (0, 3)), ((2, 3), (3, 3)), ((3, 3), (2, 3)), ((2, 0), (2, 1)), ((2, 1), (2, 0)), ((2, 1), (3, 1)), ((3, 1), (2, 1)), ((0, 1), (0, 2)), ((0, 2), (0, 1)), ((0, 2), (0, 3)), ((0, 3), (0, 2)), ((1, 0), (2, 0)), ((2, 0), (1, 0)), ((1, 3), (2, 3)), ((2, 3), (1, 3)), ((1, 1), (2, 1)), ((2, 1), (1, 1)), ((0, 2), (1, 2)), ((1, 2), (0, 2)), ((3, 0), (3, 1)), ((3, 1), (3, 0)), ((1, 2), (1, 3)), ((1, 3), (1, 2)), ((2, 2), (3, 2)), ((3, 2), (2, 2))]",4,2,2.4125
MP02_1,2,46,"(1, 0)","(2, 3)",18,3,5,"[((0, 3), (1, 3)), ((1, 3), (0, 3)), ((0, 2), (0, 3)), ((0, 3), (0, 2)), ((0, 1), (0, 2)), ((0, 2), (0, 1)), ((1, 1), (1, 2)), ((1, 2), (1, 1)), ((2, 3), (3, 3)), ((3, 3), (2, 3)), ((1, 2), (2, 2)), ((2, 2), (1, 2)), ((3, 0), (3, 1)), ((3, 1), (3, 0)), ((1, 3), (2, 3)), ((2, 3), (1, 3)), ((1, 0), (1, 1)), ((1, 1), (1, 0)), ((0, 0), (1, 0)), ((1, 0), (0, 0)), ((1, 0), (2, 0)), ((2, 0), (1, 0)), ((3, 1), (3, 2)), ((3, 2), (3, 1)), ((0, 2), (1, 2)), ((1, 2), (0, 2)), ((2, 0), (3, 0)), ((3, 0), (2, 0)), ((3, 2), (3, 3)), ((3, 3), (3, 2)), ((0, 1), (1, 1)), ((1, 1), (0, 1)), ((2, 2), (3, 2)), ((3, 2), (2, 2)), ((1, 1), (2, 1)), ((2, 1), (1, 1))]",7,5,1.3164
MP02_1,2,47,"(0, 1)","(3, 2)",17,2,5,"[((0, 1), (0, 2)), ((0, 2), (0, 1)), ((2, 0), (2, 1)), ((2, 1), (2, 0)), ((2, 2), (2, 3)), ((2, 3), (2, 2)), ((2, 2), (3, 2)), ((3, 2), (2, 2)), ((3, 1), (3, 2)), ((3, 2), (3, 1)), ((0, 1), (1, 1)), ((1, 1), (0, 1)), ((2, 1), (2, 2)), ((2, 2), (2, 1)), ((1, 0), (1, 1)), ((1, 1), (1, 0)), ((0, 3), (1, 3)), ((1, 3), (0, 3)), ((3, 2), (3, 3)), ((3, 3), (3, 2)), ((1, 0), (2, 0)), ((2, 0), (1, 0)), ((1, 2), (2, 2)), ((2, 2), (1, 2)), ((1, 1), (2, 1)), ((2, 1), (1, 1)), ((0, 0), (0, 1)), ((0, 1), (0, 0)), ((1, 3), (2, 3)), ((2, 3), (1, 3)), ((2, 0), (3, 0)), ((3, 0), (2, 0)), ((0, 2), (1, 2)), ((1, 2), (0, 2))]",3,1,1.7188
MP02_1,2,48,"(1, 3)","(2, 0)",18,3,5,"[((2, 0), (2, 1)), ((2, 1), (2, 0)), ((2, 0), (3, 0)), ((3, 0), (2, 0)), ((3, 0), (3, 1)), ((3, 1), (3, 0)), ((1, 2), (1, 3)), ((1, 3), (1, 2)), ((0, 0), (1, 0)), ((1, 0), (0, 0)), ((2, 3), (3, 3)), ((3, 3), (2, 3)), ((2, 1), (3, 1)), ((3, 1), (2, 1)), ((0, 1), (1, 1)), ((1, 1), (0, 1)), ((1, 3), (2, 3)), ((2, 3), (1, 3)), ((0, 3), (1, 3)), ((1, 3), (0, 3)), ((0, 1), (0, 2)), ((0, 2), (0, 1)), ((0, 0), (0, 1)), ((0, 1), (0, 0)), ((3, 2), (3, 3)), ((3, 3), (3, 2)), ((0, 2), (0, 3)), ((0, 3), (0, 2)), ((1, 0), (1, 1)), ((1, 1), (1, 0)), ((1, 1), (2, 1)), ((2, 1), (1, 1)), ((2, 1), (2, 2)), ((2, 2), (2, 1)), ((2, 2), (2, 3)), ((2, 3), (2, 2))]",6,2,2.6488
MP02_1,2,49,"(3, 2)","(0, 1)",16,1,5,"[((2, 1), (2, 2)), ((2, 2), (2, 1)), ((1, 3), (2, 3)), ((2, 3), (1, 3)), ((2, 2), (3, 2)), ((3, 2), (2, 2)), ((0, 0), (1, 0)), ((1, 0), (0, 0)), ((3, 2), (3, 3)), ((3, 3), (3, 2)), ((0, 1), (0, 2)), ((0, 2), (0, 1)), ((1, 2), (1, 3)), ((1, 3), (1, 2)), ((2, 0), (2, 1)), ((2, 1), (2, 0)), ((0, 2), (0, 3)), ((0, 3), (0, 2)), ((1, 0), (1, 1)), ((1, 1), (1, 0)), ((2, 3), (3, 3)), ((3, 3), (2, 3)), ((1, 1), (1, 2)), ((1, 2), (1, 1)), ((0, 0), (0, 1)), ((0, 1), (0, 0)), ((2, 0), (3, 0)), ((3, 0), (2, 0)), ((2, 2), (2, 3)), ((2, 3), (2, 2)), ((3, 0), (3, 1)), ((3, 1), (3, 0))]",2,2,2.5367
MP02_1,2,50,"(3, 1)","(0, 2)",18,3,5,"[((2, 1), (2, 2)), ((2, 2), (2, 1)), ((2, 3), (3, 3)), ((3, 3), (2, 3)), ((2, 0), (2, 1)), ((2, 1), (2, 0)), ((0, 1), (0, 2)), ((0, 2), (0, 1)), ((0, 2), (1, 2)), ((1, 2), (0, 2)), ((1, 1), (1, 2)), ((1, 2), (1, 1)), ((2, 0), (3, 0)), ((3, 0), (2, 0)), ((2, 1), (3, 1)), ((3, 1), (2, 1)), ((3, 0), (3, 1)), ((3, 1), (3, 0)), ((1, 2), (2, 2)), ((2, 2), (1, 2)), ((1, 2), (1, 3)), ((1, 3), (1, 2)), ((1, 0), (2, 0)), ((2, 0), (1, 0)), ((0, 0), (0, 1)), ((0, 1), (0, 0)), ((2, 2), (2, 3)), ((2, 3), (2, 2)), ((0, 2), (0, 3)), ((0, 3), (0, 2)), ((1, 3), (2, 3)), ((2, 3), (1, 3)), ((3, 1), (3, 2)), ((3, 2), (3, 1)), ((0, 0), (1, 0)), ((1, 0), (0, 0))]",6,4,2.5679
MP02_1,2,51,"(3, 1)","(0, 2)",16,1,5,"[((2, 1), (2, 2)), ((2, 2), (2, 1)), ((0, 0), (1, 0)), ((1, 0), (0, 0)), ((1, 1), (2, 1)), ((2, 1), (1, 1)), ((0, 2), (1, 2)), ((1, 2), (0, 2)), ((0, 0), (0, 1)), ((0, 1), (0, 0)), ((1, 3), (2, 3)), ((2, 3), (1, 3)), ((3, 2), (3, 3)), ((3, 3), (3, 2)), ((1, 2), (2, 2)), ((2, 2), (1, 2)), ((2, 0), (2, 1)), ((2, 1), (2, 0)), ((2, 2), (2, 3)), ((2, 3), (2, 2)), ((1, 1), (1, 2)), ((1, 2), (1, 1)), ((2, 0), (3, 0)), ((3, 0), (2, 0)), ((3, 0), (3, 1)), ((3, 1), (3, 0)), ((0, 3), (1, 3)), ((1, 3), (0, 3)), ((2, 3), (3, 3)), ((3, 3), (2, 3)), ((1, 0), (2, 0)), ((2, 0), (1, 0))]",2,2,1.2859
MP02_1,2,52,"(1, 3)","(2, 0)",18,3,5,"[((2, 0), (3, 0)), ((3, 0), (2, 0)), ((0, 0), (1, 0)), ((1, 0), (0, 0)), ((1, 2), (1, 3)), ((1, 3), (1, 2)), ((3, 0), (3, 1)), ((3, 1), (3, 0)), ((0, 2), (1, 2)), ((1, 2), (0, 2)), ((0, 1), (0, 2)), ((0, 2), (0, 1)), ((1, 1), (2, 1)), ((2, 1), (1, 1)), ((1, 0), (1, 1)), ((1, 1), (1, 0)), ((3, 1), (3, 2)), ((3, 2), (3, 1)), ((0, 3), (1, 3)), ((1, 3), (0, 3)), ((0, 0), (0, 1)), ((0, 1), (0, 0)), ((3, 2), (3, 3)), ((3, 3), (3, 2)), ((2, 3), (3, 3)), ((3, 3), (2, 3)), ((1, 3), (2, 3)), ((2, 3), (1, 3)), ((2, 0), (2, 1)), ((2, 1), (2, 0)), ((0, 1), (1, 1)), ((1, 1), (0, 1)), ((0, 2), (0, 3)), ((0, 3), (0, 2)), ((2, 2), (2, 3)), ((2, 3), (2, 2))]",7,5,1.5022
MP02_1,2,53,"(0, 2)","(3, 1)",18,3,5,"[((0, 3), (1, 3)), ((1, 3), (0, 3)), ((2, 0), (3, 0)), ((3, 0), (2, 0)), ((3, 2), (3, 3)), ((3, 3), (3, 2)), ((2, 1), (2, 2)), ((2, 2), (2, 1)), ((1, 2), (1, 3)), ((1, 3), (1, 2)), ((0, 0), (0, 1)), ((0, 1), (0, 0)), ((2, 3), (3, 3)), ((3, 3), (2, 3)), ((1, 1), (2, 1)), ((2, 1), (1, 1)), ((2, 0), (2, 1)), ((2, 1), (2, 0)), ((1, 0), (1, 1)), ((1, 1), (1, 0)), ((0, 1), (1, 1)), ((1, 1), (0, 1)), ((1, 2), (2, 2)), ((2, 2), (1, 2)), ((2, 2), (2, 3)), ((2, 3), (2, 2)), ((3, 1), (3, 2)), ((3, 2), (3, 1)), ((0, 2), (0, 3)), ((0, 3), (0, 2)), ((3, 0), (3, 1)), ((3, 1), (3, 0)), ((0, 0), (1, 0)), ((1, 0), (0, 0)), ((2, 1), (3, 1)), ((3, 1), (2, 1))]",3,3,2.8159
MP02_1,2,54,"(2, 0)","(1, 3)",17,2,5,"[((0, 2), (0, 3)), ((0, 3), (0, 2)), ((2, 2), (2, 3)), ((2, 3), (2, 2)), ((0, 1), (1, 1)), ((1, 1), (0, 1)), ((2, 1), (2, 2)), ((2, 2), (2, 1)), ((2, 3), (3, 3)), ((3, 3), (2, 3)), ((1, 3), (2, 3)), ((2, 3), (1, 3)), ((0, 0), (0, 1)), ((0, 1), (0, 0)), ((3, 2), (3, 3)), ((3, 3), (3, 2)), ((0, 1), (0, 2)), ((0, 2), (0, 1)), ((2, 2), (3, 2)), ((3, 2), (2, 2)), ((1, 1), (1, 2)), ((1, 2), (1, 1)), ((0, 3), (1, 3)), ((1, 3), (0, 3)), ((3, 0), (3, 1)), ((3, 1), (3, 0)), ((2, 0), (3, 0)), ((3, 0), (2, 0)), ((2, 0), (2, 1)), ((2, 1), (2, 0)), ((0, 0), (1, 0)), ((1, 0), (0, 0)), ((1, 0), (1, 1)), ((1, 1), (1, 0))]",2,2,1.9622
MP02_1,2,55,"(3, 1)","(0, 2)",18,3,5,"[((3, 0), (3, 1)), ((3, 1), (3, 0)), ((1, 2), (2, 2)), ((2, 2), (1, 2)), ((0, 1), (0, 2)), ((0, 2), (0, 1)), ((0, 1), (1, 1)), ((1, 1), (0, 1)), ((0, 2), (0, 3)), ((0, 3), (0, 2)), ((1, 0), (2, 0)), ((2, 0), (1, 0)), ((0, 2), (1, 2)), ((1, 2), (0, 2)), ((0, 0), (0, 1)), ((0, 1), (0, 0)), ((2, 2), (3, 2)), ((3, 2), (2, 2)), ((1, 1), (1, 2)), ((1, 2), (1, 1)), ((2, 2), (2, 3)), ((2, 3), (2, 2)), ((2, 0), (3, 0)), ((3, 0), (2, 0)), ((1, 0), (1, 1)), ((1, 1), (1, 0)), ((0, 3), (1, 3)), ((1, 3), (0, 3)), ((2, 1), (2, 2)), ((2, 2), (2, 1)), ((3, 2), (3, 3)), ((3, 3), (3, 2)), ((3, 1), (3, 2)), ((3, 2), (3, 1)), ((0, 0), (1, 0)), ((1, 0), (0, 0))]",7,3,1.4524
MP02_1,2,56,"(0, 2)","(3, 1)",18,3,5,"[((1, 2), (2, 2)), ((2, 2), (1, 2)), ((0, 0), (0, 1)), ((0, 1), (0, 0)), ((2, 0), (3, 0)), ((3, 0), (2, 0)), ((2, 3), (3, 3)), ((3, 3), (2, 3)), ((1, 1), (1, 2)), ((1, 2), (1, 1)), ((2, 0), (2, 1)), ((2, 1), (2, 0)), ((0, 0), (1, 0)), ((1, 0), (0, 0)), ((0, 1), (1, 1)), ((1, 1), (0, 1)), ((0, 2), (0, 3)), ((0, 3), (0, 2)), ((2, 1), (3, 1)), ((3, 1), (2, 1)), ((2, 2), (3, 2)), ((3, 2), (2, 2)), ((3, 1), (3, 2)), ((3, 2), (3, 1)), ((2, 1), (2, 2)), ((2, 2), (2, 1)), ((3, 2), (3, 3)), ((3, 3), (3, 2)), ((1, 0), (1, 1)), ((1, 1), (1, 0)), ((0, 3), (1, 3)), ((1, 3), (0, 3)), ((0, 2), (1, 2)), ((1, 2), (0, 2)), ((0, 1), (0, 2)), ((0, 2), (0, 1))]",6,2,2.2663
MP02_1,2,57,"(0, 2)","(3, 1)",18,3,5,"[((0, 1), (0, 2)), ((0, 2), (0, 1)), ((1, 2), (2, 2)), ((2, 2), (1, 2)), ((1, 1), (2, 1)), ((2, 1), (1, 1)), ((3, 2), (3, 3)), ((3, 3), (3, 2)), ((0, 2), (0, 3)), ((0, 3), (0, 2)), ((0, 3), (1, 3)), ((1, 3), (0, 3)), ((1, 2), (1, 3)), ((1, 3), (1, 2)), ((1, 0), (1, 1)), ((1, 1), (1, 0)), ((3, 0), (3, 1)), ((3, 1), (3, 0)), ((1, 3), (2, 3)), ((2, 3), (1, 3)), ((2, 0), (2, 1)), ((2, 1), (2, 0)), ((0, 0), (1, 0)), ((1, 0), (0, 0)), ((2, 1), (3, 1)), ((3, 1), (2, 1)), ((1, 1), (1, 2)), ((1, 2), (1, 1)), ((1, 0), (2, 0)), ((2, 0), (1, 0)), ((3, 1), (3, 2)), ((3, 2), (3, 1)), ((2, 3), (3, 3)), ((3, 3), (2, 3)), ((0, 0), (0, 1)), ((0, 1), (0, 0))]",7,5,2.5372
MP02_1,2,58,"(1, 0)","(2, 3)",17,2,5,"[((2, 1), (3, 1)), ((3, 1), (2, 1)), ((0, 0), (0, 1)), ((0, 1), (0, 0)), ((1, 0), (1, 1)), ((1, 1), (1, 0)), ((0, 0), (1, 0)), ((1, 0), (0, 0)), ((1, 3), (2, 3)), ((2, 3), (1, 3)), ((3, 0), (3, 1)), ((3, 1), (3, 0)), ((1, 2), (1, 3)), ((1, 3), (1, 2)), ((3, 1), (3, 2)), ((3, 2), (3, 1)), ((0, 3), (1, 3)), ((1, 3), (0, 3)), ((0, 1), (1, 1)), ((1, 1), (0, 1)), ((1, 2), (2, 2)), ((2, 2), (1, 2)), ((1, 0), (2, 0)), ((2, 0), (1, 0)), ((2, 2), (2, 3)), ((2, 3), (2, 2)), ((2, 3), (3, 3)), ((3, 3), (2, 3)), ((0, 1), (0, 2)), ((0, 2), (0, 1)), ((3, 2), (3, 3)), ((3, 3), (3, 2)), ((0, 2), (1, 2)), ((1, 2), (0, 2))]",4,2,1.8836
MP02_1,2,59,"(2, 0)","(1, 3)",18,3,5,"[((0, 2), (1, 2)), ((1, 2), (0, 2)), ((1, 0), (2, 0)), ((2, 0), (1, 0)), ((0, 0), (0, 1)), ((0, 1), (0, 0)), ((1, 3), (2, 3)), ((2, 3), (1, 3)), ((1, 0), (1, 1)), ((1, 1), (1, 0)), ((0, 2), (0, 3)), ((0, 3), (0, 2)), ((0, 3), (1, 3)), ((1, 3), (0, 3)), ((2, 1), (2, 2)), ((2, 2), (2, 1)), ((3, 2), (3, 3)), ((3, 3), (3, 2)), ((2, 3), (3, 3)), ((3, 3), (2, 3)), ((3, 1), (3, 2)), ((3, 2), (3, 1)), ((0, 1), (0, 2)), ((0, 2), (0, 1)), ((1, 1), (1, 2)), ((1, 2), (1, 1)), ((2, 2), (3, 2)), ((3, 2), (2, 2)), ((2, 1), (3, 1)), ((3, 1), (2, 1)), ((2, 0), (2, 1)), ((2, 1), (2, 0)), ((2, 0), (3, 0)), ((3, 0), (2, 0)), ((0, 1), (1, 1)), ((1, 1), (0, 1))]",4,5,2.0386
MP02_1,2,60,"(2, 0)","(1, 3)",16,1,5,"[((2, 0), (3, 0)), ((3, 0), (2, 0)), ((0, 2), (0, 3)), ((0, 3), (0, 2)), ((2, 0), (2, 1)), ((2, 1), (2, 0)), ((3, 1), (3, 2)), ((3, 2), (3, 1)), ((1, 1), (2, 1)), ((2, 1), (1, 1)), ((0, 1), (1, 1)), ((1, 1), (0, 1)), ((2, 2), (3, 2)), ((3, 2), (2, 2)), ((0, 0), (0, 1)), ((0, 1), (0, 0)), ((0, 0), (1, 0)), ((1, 0), (0, 0)), ((3, 2), (3, 3)), ((3, 3), (3, 2)), ((1, 1), (1, 2)), ((1, 2), (1, 1)), ((2, 2), (2, 3)), ((2, 3), (2, 2)), ((0, 3), (1, 3)), ((1, 3), (0, 3)), ((1, 2), (2, 2)), ((2, 2), (1, 2)), ((1, 2), (1, 3)), ((1, 3), (1, 2)), ((0, 1), (0, 2)), ((0, 2), (0, 1))]",2,2,3.2523
MP02_1,2,61,"(2, 0)","(1, 3)",17,2,5,"[((3, 1), (3, 2)), ((3, 2), (3, 1)), ((2, 0), (2, 1)), ((2, 1), (2, 0)), ((2, 0), (3, 0)), ((3, 0), (2, 0)), ((1, 2), (1, 3)), ((1, 3), (1, 2)), ((1, 3), (2, 3)), ((2, 3), (1, 3)), ((2, 3), (3, 3)), ((3, 3), (2, 3)), ((0, 1), (0, 2)), ((0, 2), (0, 1)), ((2, 2), (3, 2)), ((3, 2), (2, 2)), ((0, 0), (1, 0)), ((1, 0), (0, 0)), ((0, 2), (1, 2)), ((1, 2), (0, 2)), ((1, 1), (2, 1)), ((2, 1), (1, 1)), ((2, 1), (2, 2)), ((2, 2), (2, 1)), ((0, 1), (1, 1)), ((1, 1), (0, 1)), ((2, 1), (3, 1)), ((3, 1), (2, 1)), ((1, 2), (2, 2)), ((2, 2), (1, 2)), ((1, 0), (2, 0)), ((2, 0), (1, 0)), ((0, 2), (0, 3)), ((0, 3), (0, 2))]",5,3,2.8347
MP02_1,2,62,"(1, 3)","(2, 0)",16,1,5,"[((3, 2), (3, 3)), ((3, 3), (3, 2)), ((2, 3), (3, 3)), ((3, 3), (2, 3)), ((0, 1), (0, 2)), ((0, 2), (0, 1)), ((3, 1), (3, 2)), ((3, 2), (3, 1)), ((1, 2), (1, 3)), ((1, 3), (1, 2)), ((0, 2), (1, 2)), ((1, 2), (0, 2)), ((0, 0), (1, 0)), ((1, 0), (0, 0)), ((0, 1), (1, 1)), ((1, 1), (0, 1)), ((2, 1), (2, 2)), ((2, 2), (2, 1)), ((2, 0), (3, 0)), ((3, 0), (2, 0)), ((1, 1), (2, 1)), ((2, 1), (1, 1)), ((1, 1), (1, 2)), ((1, 2), (1, 1)), ((1, 0), (1, 1)), ((1, 1), (1, 0)), ((3, 0), (3, 1)), ((3, 1), (3, 0)), ((2, 0), (2, 1)), ((2, 1), (2, 0)), ((0, 2), (0, 3)), ((0, 3), (0, 2))]",2,2,2.2344
MP02_1,2,63,"(0, 1)","(3, 2)",15,0,5,"[((3, 0), (3, 1)), ((3, 1), (3, 0)), ((0, 0), (1, 0)), ((1, 0), (0, 0)), ((3, 2), (3, 3)), ((3, 3), (3, 2)), ((0, 2), (0, 3)), ((0, 3), (0, 2)), ((1, 2), (1, 3)), ((1, 3), (1, 2)), ((0, 2), (1, 2)), ((1, 2), (0, 2)), ((1, 3), (2, 3)), ((2, 3), (1, 3)), ((0, 1), (0, 2)), ((0, 2), (0, 1)), ((1, 0), (1, 1)), ((1, 1), (1, 0)), ((0, 1), (1, 1)), ((1, 1), (0, 1)), ((3, 1), (3, 2)), ((3, 2), (3, 1)), ((1, 2), (2, 2)), ((2, 2), (1, 2)), ((2, 1), (3, 1)), ((3, 1), (2, 1)), ((2, 3), (3, 3)), ((3, 3), (2, 3)), ((1, 0), (2, 0)), ((2, 0), (1, 0))]",1,1,2.3517
MP02_1,3,1,"(0, 2)","(3, 1)",16,1,1,"[((1, 1), (1, 2)), ((1, 2), (1, 1)), ((2, 1), (2, 2)), ((2, 2), (2, 1)), ((2, 3), (3, 3)), ((3, 3), (2, 3)), ((0, 2), (1, 2)), ((1, 2), (0, 2)), ((0, 3), (1, 3)), ((1, 3), (0, 3)), ((2, 1), (3, 1)), ((3, 1), (2, 1)), ((1, 2), (1, 3)), ((1, 3), (1, 2)), ((2, 0), (2, 1)), ((2, 1), (2, 0)), ((0, 0), (1, 0)), ((1, 0), (0, 0)), ((1, 0), (1, 1)), ((1, 1), (1, 0)), ((1, 3), (2, 3)), ((2, 3), (1, 3)), ((0, 1), (1, 1)), ((1, 1), (0, 1)), ((2, 0), (3, 0)), ((3, 0), (2, 0)), ((2, 2), (2, 3)), ((2, 3), (2, 2)), ((0, 0), (0, 1)), ((0, 1), (0, 0)), ((3, 2), (3, 3)), ((3, 3), (3, 2))]",1,2,2.902
MP02_1,3,2,"(1, 0)","(2, 3)",16,1,1,"[((0, 2), (1, 2)), ((1, 2), (0, 2)), ((0, 0), (1, 0)), ((1, 0), (0, 0)), ((0, 1), (0, 2)), ((0, 2), (0, 1)), ((3, 0), (3, 1)), ((3, 1), (3, 0)), ((2, 0), (2, 1)), ((2, 1), (2, 0)), ((2, 1), (2, 2)), ((2, 2), (2, 1)), ((1, 1), (1, 2)), ((1, 2), (1, 1)), ((3, 1), (3, 2)), ((3, 2), (3, 1)), ((2, 2), (3, 2)), ((3, 2), (2, 2)), ((0, 2), (0, 3)), ((0, 3), (0, 2)), ((2, 3), (3, 3)), ((3, 3), (2, 3)), ((1, 2), (1, 3)), ((1, 3), (1, 2)), ((3, 2), (3, 3)), ((3, 3), (3, 2)), ((1, 0), (1, 1)), ((1, 1), (1, 0)), ((0, 1), (1, 1)), ((1, 1), (0, 1)), ((1, 1), (2, 1)), ((2, 1), (1, 1))]",3,3,2.448
MP02_1,3,3,"(3, 2)","(0, 1)",15,0,1,"[((2, 1), (2, 2)), ((2, 2), (2, 1)), ((0, 2), (0, 3)), ((0, 3), (0, 2)), ((2, 3), (3, 3)), ((3, 3), (2, 3)), ((1, 0), (2, 0)), ((2, 0), (1, 0)), ((3, 2), (3, 3)), ((3, 3), (3, 2)), ((2, 0), (2, 1)), ((2, 1), (2, 0)), ((2, 0), (3, 0)), ((3, 0), (2, 0)), ((1, 0), (1, 1)), ((1, 1), (1, 0)), ((0, 1), (0, 2)), ((0, 2), (0, 1)), ((2, 2), (3, 2)), ((3, 2), (2, 2)), ((0, 0), (0, 1)), ((0, 1), (0, 0)), ((2, 1), (3, 1)), ((3, 1), (2, 1)), ((0, 3), (1, 3)), ((1, 3), (0, 3)), ((1, 1), (1, 2)), ((1, 2), (1, 1)), ((0, 0), (1, 0)), ((1, 0), (0, 0))]",1,4,2.6364
MP02_1,3,4,"(2, 0)","(1, 3)",16,1,1,"[((2, 1), (3, 1)), ((3, 1), (2, 1)), ((1, 3), (2, 3)), ((2, 3), (1, 3)), ((2, 0), (3, 0)), ((3, 0), (2, 0)), ((3, 2), (3, 3)), ((3, 3), (3, 2)), ((0, 1), (0, 2)), ((0, 2), (0, 1)), ((0, 0), (1, 0)), ((1, 0), (0, 0)), ((2, 2), (3, 2)), ((3, 2), (2, 2)), ((0, 2), (1, 2)), ((1, 2), (0, 2)), ((0, 3), (1, 3)), ((1, 3), (0, 3)), ((3, 1), (3, 2)), ((3, 2), (3, 1)), ((0, 1), (1, 1)), ((1, 1), (0, 1)), ((1, 1), (2, 1)), ((2, 1), (1, 1)), ((1, 0), (2, 0)), ((2, 0), (1, 0)), ((2, 2), (2, 3)), ((2, 3), (2, 2)), ((0, 2), (0, 3)), ((0, 3), (0, 2)), ((3, 0), (3, 1)), ((3, 1), (3, 0))]",2,4,2.2174
